Group_id,Time(ms),AccelX,AccelY,AccelZ,GyroX,GyroY,GyroZ
1,1714732987989,-3.54,-5.06,8.19,0.10,0.00,0.04
1,1714732988022,-3.18,-5.00,8.01,0.01,-0.12,-0.02
1,1714732988055,-3.08,-5.32,8.00,-0.04,-0.12,-0.01
1,1714732988088,-3.15,-5.52,7.92,-0.12,-0.06,-0.03
1,1714732988122,-3.30,-5.78,7.88,-0.21,-0.06,-0.05
1,1714732988155,-3.18,-5.89,7.71,-0.21,-0.01,-0.08
1,1714732988188,-3.11,-6.03,8.10,-0.21,0.13,-0.04
1,1714732988222,-3.48,-6.04,8.59,-0.14,0.12,0.01
1,1714732988256,-3.39,-6.15,8.11,-0.02,0.09,0.03
1,1714732988289,-3.20,-6.07,7.74,0.06,0.13,0.03
1,1714732988322,-3.33,-6.06,7.94,0.06,0.17,0.04
1,1714732988355,-3.29,-6.13,7.88,0.05,0.26,-0.00
1,1714732988389,-3.51,-6.06,7.69,0.08,0.24,0.01
1,1714732988450,-3.70,-5.96,7.53,0.09,0.12,0.00
1,1714732988482,-4.05,-5.83,7.38,0.04,0.00,0.03
1,1714732988515,-3.79,-5.99,7.41,-0.07,-0.13,0.05
1,1714732988547,-3.65,-5.96,7.78,-0.11,-0.06,0.03
1,1714732988581,-4.99,-6.81,9.54,0.17,-0.27,0.12
1,1714732988614,-5.85,-7.47,10.75,0.54,-1.28,0.18
1,1714732988648,-2.92,-8.18,14.53,0.77,-1.66,0.20
1,1714732988681,-4.75,-10.11,16.72,1.77,-0.78,0.47
1,1714732988714,-4.37,-8.50,18.34,2.25,-0.23,0.49
1,1714732988746,-7.59,-9.82,19.59,2.70,-0.37,1.03
1,1714732988778,-6.54,-9.33,17.19,3.84,-0.73,1.36
1,1714732988811,-6.56,-7.32,15.11,4.37,-1.21,1.34
1,1714732988844,-5.81,-7.30,11.67,4.37,-1.69,1.44
1,1714732988877,-4.07,-5.26,9.36,4.37,-1.60,1.44
1,1714732988910,-6.30,-4.75,9.24,4.37,-2.14,1.62
1,1714732988942,-1.46,-2.77,5.85,4.37,-2.41,1.56
1,1714732988974,-2.61,-2.09,5.53,4.37,-1.60,1.44
1,1714732989007,-2.73,-1.96,2.81,4.37,-2.37,1.70
1,1714732989039,2.81,0.82,1.00,4.37,-1.56,1.69
1,1714732989073,1.18,2.04,0.70,4.29,-0.64,1.52
1,1714732989105,2.24,3.17,-0.41,3.48,-1.20,1.48
1,1714732989139,4.81,5.21,-2.01,2.84,-0.89,1.36
1,1714732989171,3.95,6.11,-2.11,2.09,-0.29,1.18
1,1714732989204,5.15,7.00,-1.66,1.40,-0.22,0.99
1,1714732989238,6.39,6.66,-1.58,0.84,-0.07,0.75
1,1714732989271,5.66,7.09,-1.64,0.19,0.19,0.39
1,1714732989304,5.77,6.96,-0.70,-0.30,0.43,0.16
1,1714732989337,6.44,6.38,0.70,-0.54,0.51,-0.12
1,1714732989370,5.47,7.03,1.19,-0.79,0.58,-0.40
1,1714732989402,5.51,7.45,1.51,-1.09,0.67,-0.58
1,1714732989436,5.14,6.03,1.89,-1.33,0.79,-0.74
1,1714732989469,3.46,6.27,2.74,-1.63,1.04,-0.91
1,1714732989503,2.78,5.79,3.66,-1.95,1.02,-0.99
1,1714732989536,1.92,3.95,4.02,-2.18,1.09,-1.12
1,1714732989569,0.66,3.08,5.63,-2.37,1.28,-1.28
1,1714732989602,-0.08,3.14,7.02,-2.49,1.47,-1.40
1,1714732989635,-0.89,2.87,8.70,-2.53,1.64,-1.40
1,1714732989668,-2.32,2.03,8.86,-2.30,1.67,-1.30
1,1714732989701,-2.88,1.82,9.34,-2.29,1.33,-1.14
1,1714732989734,-2.49,1.26,10.38,-2.35,1.31,-1.06
1,1714732989766,-3.40,1.21,7.74,-2.00,2.24,-0.83
1,1714732989799,-4.30,1.37,11.67,-2.39,1.08,-0.50
1,1714732989832,-2.02,0.24,12.20,-2.13,0.20,-0.58
1,1714732989864,-1.69,0.25,8.43,-1.91,1.30,-0.82
1,1714732989898,-4.46,-0.01,9.17,-2.30,1.40,-0.71
1,1714732989930,-2.93,-1.13,10.45,-2.47,0.98,-0.87
1,1714732989964,-3.90,-0.90,11.40,-2.74,1.16,-1.09
1,1714732989996,-4.23,-2.77,12.69,-3.14,0.12,-1.20
1,1714732990029,-2.33,-4.84,11.98,-2.78,0.43,-1.38
1,1714732990062,-3.74,-5.15,12.18,-2.61,1.67,-1.24
1,1714732990095,-6.09,-6.98,13.15,-2.61,2.01,-0.96
2,1714732993133,-5.54,-7.19,10.31,3.57,-3.10,1.31
2,1714732993166,-2.93,-6.08,9.90,3.94,-2.86,1.01
2,1714732993198,-3.98,-5.46,11.71,3.95,-2.05,1.00
2,1714732993232,-4.31,-7.22,11.26,4.33,-2.44,0.94
2,1714732993265,-1.84,-5.07,7.75,4.37,-2.69,0.87
2,1714732993298,-2.64,-3.07,5.96,4.37,-1.73,0.89
2,1714732993332,-0.81,-2.76,2.28,4.37,-1.43,1.10
2,1714732993365,-0.10,-0.44,0.88,4.37,-1.53,1.47
2,1714732993398,1.87,-0.45,-0.79,4.37,-1.32,1.49
2,1714732993430,3.03,2.03,-2.33,3.99,-0.89,1.32
2,1714732993463,2.84,3.43,-2.56,3.11,-1.21,1.21
2,1714732993496,5.73,4.99,-3.09,2.28,-1.27,1.07
2,1714732993529,6.42,5.83,-3.83,1.61,-0.42,0.71
2,1714732993563,6.44,7.16,-3.35,0.89,-0.01,0.41
2,1714732993596,6.34,8.09,-1.85,0.27,-0.21,0.26
2,1714732993629,7.55,8.35,-0.85,-0.13,0.02,0.01
2,1714732993662,7.48,8.58,0.05,-0.28,0.46,-0.30
2,1714732993695,6.54,8.53,1.45,-0.33,0.56,-0.52
2,1714732993728,6.38,8.40,2.42,-0.45,0.23,-0.64
2,1714732993761,7.18,8.60,2.05,-0.39,0.52,-0.82
2,1714732993794,5.84,8.32,1.64,-0.40,0.92,-1.04
2,1714732993827,4.28,7.97,1.60,-0.64,1.00,-1.12
2,1714732993859,4.05,7.48,2.02,-0.95,0.89,-1.18
2,1714732993893,3.94,6.53,1.79,-1.17,0.96,-1.33
2,1714732993926,2.60,6.33,1.18,-1.52,1.29,-1.46
2,1714732993959,1.17,5.77,3.11,-2.13,1.27,-1.55
2,1714732993993,0.78,4.19,3.92,-2.50,1.03,-1.52
2,1714732994025,-0.08,3.79,5.29,-2.78,0.88,-1.39
2,1714732994059,-0.53,2.19,7.04,-3.09,0.71,-1.36
2,1714732994092,-0.57,-0.39,7.88,-3.02,0.76,-1.43
2,1714732994125,-1.88,0.76,8.94,-2.96,0.65,-1.40
2,1714732994158,-1.63,0.05,10.06,-2.94,0.34,-1.36
2,1714732994191,-1.76,-0.69,10.11,-2.71,0.67,-1.29
2,1714732994224,-3.13,-0.02,10.82,-2.52,0.99,-1.34
2,1714732994258,-2.92,-0.42,12.03,-2.46,0.52,-1.14
2,1714732994289,-2.26,-1.92,11.91,-2.33,0.58,-1.14
2,1714732994322,-2.43,-1.95,11.44,-1.84,1.60,-1.32
2,1714732994356,-5.52,-1.36,12.40,-2.07,0.90,-1.06
2,1714732994389,-2.93,-3.34,12.64,-2.06,0.30,-1.06
2,1714732994423,-2.59,-3.25,11.86,-1.83,0.70,-1.12
2,1714732994457,-4.03,-3.51,12.43,-1.92,0.67,-1.02
2,1714732994490,-4.06,-5.37,12.93,-1.71,0.05,-0.83
2,1714732994523,-2.20,-5.65,12.89,-1.38,-0.01,-0.84
2,1714732994555,-1.64,-5.21,12.77,-1.01,0.73,-0.89
2,1714732994589,-3.96,-5.74,12.39,-0.77,0.84,-0.79
2,1714732994623,-4.07,-6.16,11.16,-0.57,0.43,-0.73
2,1714732994656,-3.61,-5.58,10.04,-0.44,0.49,-0.66
2,1714732994689,-3.77,-5.76,9.70,-0.48,0.48,-0.60
2,1714732994721,-3.59,-5.95,9.45,-0.39,-0.06,-0.58
2,1714732994754,-2.37,-5.96,8.93,-0.29,0.01,-0.55
2,1714732994787,-2.82,-6.28,8.34,-0.28,0.46,-0.54
2,1714732994819,-4.07,-5.86,8.63,-0.38,0.22,-0.48
2,1714732994852,-2.66,-6.11,8.66,-0.38,-0.08,-0.47
2,1714732994885,-1.95,-6.65,8.47,-0.27,0.05,-0.52
2,1714732994918,-2.43,-6.63,8.04,-0.22,0.40,-0.53
2,1714732994952,-3.66,-6.65,8.25,-0.22,0.18,-0.49
2,1714732994985,-2.98,-6.79,8.38,-0.16,-0.05,-0.40
2,1714732995019,-2.44,-7.13,8.35,-0.03,0.13,-0.34
2,1714732995052,-2.72,-7.13,8.14,0.09,0.15,-0.31
2,1714732995085,-2.45,-7.19,7.54,0.17,0.16,-0.25
2,1714732995118,-2.05,-6.99,7.29,0.20,0.21,-0.22
2,1714732995151,-1.67,-6.88,7.03,0.20,0.31,-0.23
2,1714732995183,-1.59,-7.18,7.20,0.12,0.29,-0.30
2,1714732995216,-1.44,-7.17,7.14,0.15,0.35,-0.31
3,1714732998257,-3.27,-7.39,6.91,0.17,-0.03,-0.04
3,1714732998290,-3.34,-7.40,7.22,0.20,-0.08,-0.04
3,1714732998323,-3.34,-7.49,7.56,0.23,-0.07,-0.00
3,1714732998357,-3.47,-7.49,8.59,0.31,-0.10,0.03
3,1714732998390,-4.14,-7.77,9.45,0.34,-0.20,0.12
3,1714732998422,-3.86,-8.09,10.74,0.60,-0.36,0.32
3,1714732998455,-6.02,-8.66,12.37,0.98,-0.47,0.56
3,1714732998489,-5.31,-8.94,13.56,1.37,-0.67,0.76
3,1714732998522,-5.60,-9.21,15.43,2.10,-0.55,1.08
3,1714732998555,-7.23,-9.89,15.05,3.00,-0.67,1.38
3,1714732998588,-7.52,-9.64,15.23,3.52,-0.85,1.72
3,1714732998622,-6.76,-9.98,13.59,4.31,-1.19,1.96
3,1714732998655,-5.43,-7.40,11.19,4.37,-1.25,1.88
3,1714732998688,-4.77,-6.39,9.06,4.37,-1.50,1.91
3,1714732998721,-4.41,-5.39,8.21,4.37,-1.96,1.93
3,1714732998755,-3.61,-3.98,7.64,4.37,-2.13,1.99
3,1714732998788,-2.35,-2.40,6.69,4.37,-1.38,1.95
3,1714732998821,-3.69,-1.15,5.91,4.37,-1.65,2.01
3,1714732998854,-1.53,-0.01,3.92,4.29,-1.95,2.05
3,1714732998888,1.41,1.48,4.41,3.91,-1.35,1.86
3,1714732998921,1.49,3.20,1.26,3.25,-0.71,1.62
3,1714732998954,3.58,4.02,0.46,2.55,-0.68,1.49
3,1714732998987,4.44,5.00,0.35,1.79,-0.54,1.17
3,1714732999020,5.94,5.93,0.33,1.13,-0.24,0.81
3,1714732999054,5.39,6.37,0.82,0.61,0.18,0.48
3,1714732999087,5.53,6.74,1.16,0.13,0.11,0.21
3,1714732999120,5.63,6.76,1.97,-0.27,0.05,-0.09
3,1714732999152,5.71,6.62,2.59,-0.56,0.20,-0.45
3,1714732999184,4.83,6.54,2.84,-0.73,0.48,-0.75
3,1714732999217,3.97,6.81,2.60,-1.03,0.49,-0.95
3,1714732999251,3.38,6.30,2.59,-1.48,0.57,-1.11
3,1714732999284,1.61,5.71,3.75,-1.86,0.72,-1.20
3,1714732999317,1.01,4.95,3.75,-2.28,0.50,-1.14
3,1714732999350,0.68,3.89,4.19,-2.55,1.30,-1.16
3,1714732999382,-1.09,2.88,6.65,-2.72,1.43,-1.14
3,1714732999415,-1.27,2.14,7.13,-2.98,0.91,-1.08
3,1714732999448,0.37,0.89,8.72,-3.12,0.59,-1.12
3,1714732999481,0.82,-0.34,9.26,-2.78,1.11,-1.42
3,1714732999514,-2.72,-0.27,9.73,-2.64,1.65,-1.56
3,1714732999547,-2.85,-0.97,11.05,-2.83,0.82,-1.37
3,1714732999579,-1.08,-2.32,9.99,-2.42,1.18,-1.57
3,1714732999613,-4.51,-2.75,11.06,-2.42,1.11,-1.54
3,1714732999645,-3.66,-3.33,12.22,-2.62,0.47,-1.42
3,1714732999678,-2.36,-4.57,10.65,-2.37,0.80,-1.58
3,1714732999710,-3.31,-4.43,10.78,-2.24,1.08,-1.64
3,1714732999743,-3.52,-5.33,10.91,-2.36,0.71,-1.57
3,1714732999776,-2.36,-6.48,11.22,-2.27,0.78,-1.67
3,1714732999808,-2.65,-7.70,11.75,-1.53,1.52,-1.63
3,1714732999841,-5.81,-7.25,13.34,-1.14,1.43,-1.43
3,1714732999875,-5.54,-7.88,13.21,-1.00,0.84,-1.23
3,1714732999908,-5.11,-7.81,12.29,-0.47,1.01,-0.88
3,1714732999942,-5.67,-7.19,11.61,-0.11,0.56,-0.62
3,1714732999975,-4.67,-6.79,10.12,-0.04,0.13,-0.42
3,1714733000008,-3.61,-6.70,9.22,0.03,0.14,-0.31
3,1714733000040,-3.28,-6.48,8.54,0.19,0.31,-0.25
3,1714733000072,-3.63,-6.05,7.87,0.31,0.36,-0.17
3,1714733000106,-3.64,-6.01,7.19,0.29,0.20,-0.06
3,1714733000138,-3.03,-6.08,6.74,0.22,0.18,-0.00
3,1714733000172,-3.00,-6.05,6.74,0.17,0.22,-0.01
3,1714733000205,-3.18,-6.17,6.92,0.08,0.13,-0.02
3,1714733000238,-2.95,-6.33,7.03,-0.04,-0.02,-0.04
3,1714733000272,-2.81,-6.73,7.40,-0.08,-0.02,-0.06
3,1714733000306,-2.85,-7.00,7.72,-0.01,0.03,-0.06
3,1714733000340,-2.88,-7.00,7.68,0.04,0.07,-0.02
4,1714733003404,-2.29,-6.87,6.40,0.08,-0.30,0.04
4,1714733003439,-1.80,-6.88,7.00,0.04,-0.25,0.00
4,1714733003472,-1.81,-7.24,7.08,0.05,-0.13,-0.05
4,1714733003505,-2.21,-7.50,7.23,0.05,-0.03,-0.10
4,1714733003538,-2.23,-7.75,8.02,0.09,0.12,-0.12
4,1714733003572,-3.37,-7.52,9.10,0.12,-0.04,-0.08
4,1714733003604,-2.34,-8.25,10.88,0.19,-0.05,0.09
4,1714733003638,-4.09,-8.30,12.24,0.47,0.10,0.17
4,1714733003671,-6.09,-9.22,14.01,1.05,0.20,0.50
4,1714733003704,-4.83,-10.25,15.09,1.82,-0.70,0.98
4,1714733003738,-4.19,-9.45,14.29,2.42,-0.51,1.07
4,1714733003771,-6.50,-8.83,13.63,2.47,-0.82,1.26
4,1714733003805,-4.87,-8.94,13.66,2.28,-0.91,1.39
4,1714733003838,-6.71,-10.97,15.82,3.44,-0.28,1.82
4,1714733003872,-8.15,-9.34,15.21,4.37,-1.35,2.10
4,1714733003906,-7.58,-8.60,11.98,4.37,-2.43,1.63
4,1714733003939,-5.54,-6.97,8.19,4.37,-3.09,1.78
4,1714733003972,-1.77,-3.11,5.40,4.37,-1.92,1.83
4,1714733004005,-3.28,-2.91,3.87,4.37,-1.02,1.92
4,1714733004038,-3.14,-0.04,2.52,4.37,-1.82,2.21
4,1714733004071,-0.42,0.51,0.89,4.30,-1.93,2.11
4,1714733004105,1.47,1.48,0.21,3.61,-1.16,1.90
4,1714733004137,1.82,3.30,0.33,3.01,-0.76,1.85
4,1714733004170,3.60,3.80,-0.40,2.26,-0.95,1.68
4,1714733004203,5.04,4.88,0.31,1.58,-0.71,1.30
4,1714733004236,6.52,5.30,0.29,1.10,-0.30,0.84
4,1714733004269,6.13,5.97,0.16,0.76,0.18,0.51
4,1714733004302,5.97,6.49,0.48,0.12,-0.04,0.15
4,1714733004334,6.97,6.17,0.62,-0.24,0.16,-0.19
4,1714733004367,6.15,6.25,1.32,-0.55,0.38,-0.58
4,1714733004400,4.53,6.34,2.04,-1.06,-0.01,-0.90
4,1714733004434,4.52,5.75,2.73,-1.55,-0.18,-1.14
4,1714733004467,4.39,5.20,3.19,-1.58,0.63,-1.32
4,1714733004500,2.97,5.11,1.21,-1.74,1.18,-1.41
4,1714733004534,1.25,4.43,2.68,-2.28,1.34,-1.48
4,1714733004566,1.19,2.63,4.07,-2.81,1.18,-1.58
4,1714733004599,0.21,1.95,3.65,-3.00,2.06,-1.67
4,1714733004632,-1.23,1.83,6.81,-3.71,1.67,-1.72
4,1714733004665,-0.30,-0.59,8.18,-3.65,1.31,-1.86
4,1714733004698,-2.20,-0.81,10.56,-3.53,1.86,-1.72
4,1714733004731,-3.36,-1.61,11.90,-3.83,1.23,-2.01
4,1714733004764,-5.58,-3.91,11.76,-3.01,1.72,-1.70
4,1714733004797,-6.50,-3.12,13.52,-2.75,1.12,-1.26
4,1714733004829,-5.31,-3.74,12.78,-2.48,0.87,-1.47
4,1714733004862,-5.28,-3.50,12.02,-2.62,0.46,-1.45
4,1714733004895,-3.14,-4.80,11.51,-2.68,0.15,-1.29
4,1714733004927,-3.25,-6.39,11.02,-1.98,1.06,-1.17
4,1714733004960,-5.65,-6.02,13.16,-2.04,0.55,-0.90
4,1714733004994,-2.60,-7.33,12.26,-1.94,0.01,-0.92
4,1714733005027,-4.52,-7.43,10.75,-1.43,0.95,-0.91
4,1714733005061,-7.57,-6.89,11.58,-1.45,0.16,-0.43
4,1714733005094,-5.58,-7.60,10.65,-1.18,-0.49,-0.11
4,1714733005127,-4.02,-7.74,10.36,-0.76,-0.22,0.13
4,1714733005160,-1.66,-7.97,11.47,-0.00,0.24,0.19
4,1714733005193,-1.07,-8.20,11.33,1.01,0.65,0.01
4,1714733005226,-3.37,-6.52,8.48,0.98,0.40,0.13
4,1714733005258,-4.02,-5.27,6.77,0.53,0.08,0.16
4,1714733005290,-3.32,-6.18,7.20,0.31,-0.07,0.25
4,1714733005324,-2.56,-6.31,7.66,0.41,-0.22,0.22
4,1714733005358,-1.66,-6.45,8.55,0.29,-0.45,0.13
4,1714733005391,-1.24,-6.40,7.78,0.27,-0.12,0.04
4,1714733005424,-3.23,-6.08,7.38,0.27,-0.11,-0.00
4,1714733005457,-2.83,-6.47,7.79,0.35,-0.29,-0.04
4,1714733005490,-1.99,-6.31,7.55,0.46,0.25,-0.03
5,1714733008531,-4.80,-4.98,9.89,-0.12,-0.32,-0.03
5,1714733008565,-3.75,-5.65,11.40,-0.16,-0.66,0.23
5,1714733008598,-4.39,-6.80,13.41,0.07,-0.36,0.29
5,1714733008632,-6.32,-7.71,14.19,0.87,-0.07,0.56
5,1714733008665,-7.20,-7.30,17.14,1.88,-0.35,1.11
5,1714733008698,-6.19,-7.72,17.17,2.56,-0.67,1.23
5,1714733008731,-7.65,-6.77,16.40,3.07,-0.77,1.31
5,1714733008764,-9.15,-7.25,16.02,3.54,-1.19,1.71
5,1714733008797,-8.09,-6.16,14.24,4.31,-1.81,1.97
5,1714733008831,-6.16,-5.67,11.56,4.37,-2.18,2.09
5,1714733008864,-4.95,-4.16,9.18,4.37,-1.99,2.18
5,1714733008897,-4.37,-3.65,7.34,4.37,-1.79,2.42
5,1714733008930,-0.97,-1.88,4.61,4.37,-1.20,2.39
5,1714733008964,-1.27,-1.44,2.99,4.37,-1.07,2.27
5,1714733008997,0.09,-0.10,1.47,3.92,-1.38,2.24
5,1714733009030,1.31,0.95,0.71,3.23,-1.40,2.04
5,1714733009062,4.19,2.67,0.19,2.62,-1.13,1.79
5,1714733009095,5.14,3.91,0.49,2.03,-0.72,1.52
5,1714733009128,5.61,5.84,0.63,1.36,-0.54,1.08
5,1714733009162,6.51,6.67,0.65,0.81,-0.33,0.61
5,1714733009194,6.42,6.95,0.99,0.40,-0.17,0.21
5,1714733009226,7.09,7.14,0.56,0.08,0.02,-0.19
5,1714733009258,6.28,7.13,0.91,-0.35,0.41,-0.60
5,1714733009291,5.23,6.68,2.32,-0.73,0.10,-0.89
5,1714733009323,4.87,6.38,2.37,-0.83,0.30,-1.09
5,1714733009356,4.72,6.41,2.17,-1.06,0.82,-1.38
5,1714733009390,3.13,5.77,2.98,-1.43,0.83,-1.64
5,1714733009422,2.83,5.29,2.59,-1.70,1.16,-1.78
5,1714733009455,1.65,4.16,3.77,-2.03,1.47,-1.95
5,1714733009488,0.94,2.85,4.36,-2.42,1.49,-2.23
5,1714733009521,-1.29,2.57,5.71,-2.65,1.51,-2.31
5,1714733009554,-2.49,1.35,7.27,-3.01,0.94,-2.25
5,1714733009587,-3.05,0.10,7.95,-2.98,1.05,-2.27
5,1714733009620,-5.72,-0.31,10.38,-2.97,0.80,-2.01
5,1714733009655,-4.52,-0.90,11.37,-2.99,0.30,-1.83
5,1714733009688,-5.02,-1.64,10.48,-2.77,0.95,-1.85
5,1714733009720,-7.23,-2.07,12.05,-2.81,0.41,-1.48
5,1714733009752,-5.04,-3.03,11.56,-2.60,0.02,-1.24
5,1714733009785,-4.24,-3.07,11.65,-2.47,0.48,-1.14
5,1714733009819,-5.03,-3.49,12.10,-2.35,0.18,-1.05
5,1714733009853,-4.15,-4.47,10.54,-1.92,0.19,-0.91
5,1714733009885,-3.29,-4.66,11.12,-1.96,0.39,-0.76
5,1714733009917,-3.38,-4.74,11.44,-1.89,1.04,-0.83
5,1714733009950,-6.34,-6.10,11.03,-1.50,0.42,-0.70
5,1714733009984,-3.85,-6.31,12.05,-1.47,-0.24,-0.38
5,1714733010017,-2.91,-6.80,12.30,-1.03,0.37,-0.43
5,1714733010050,-5.41,-6.82,11.20,-0.46,0.45,-0.39
5,1714733010083,-4.84,-6.97,11.54,0.08,0.41,-0.05
5,1714733010115,-5.23,-6.04,12.81,0.67,1.03,0.10
5,1714733010149,-5.60,-5.49,10.30,0.43,-0.57,0.10
5,1714733010180,-4.68,-5.23,8.13,0.24,-0.75,0.31
5,1714733010212,-3.45,-5.09,7.70,0.21,-0.68,0.43
5,1714733010246,-2.29,-5.10,7.18,0.23,-0.56,0.29
5,1714733010280,-1.60,-5.10,7.10,0.07,-0.44,0.11
5,1714733010313,-1.53,-5.69,7.64,0.02,-0.02,-0.03
5,1714733010347,-2.67,-5.95,7.95,0.02,0.15,-0.10
5,1714733010380,-3.51,-6.03,8.38,0.15,0.07,-0.06
5,1714733010413,-3.42,-5.77,8.45,0.25,0.14,0.02
5,1714733010446,-3.21,-5.85,8.21,0.27,0.01,0.04
5,1714733010478,-2.88,-5.75,8.00,0.33,0.05,0.01
5,1714733010512,-3.00,-5.56,7.99,0.30,0.16,-0.01
5,1714733010545,-3.06,-5.82,8.31,0.20,0.04,-0.03
5,1714733010578,-3.20,-5.63,8.23,0.21,0.08,-0.03
5,1714733010611,-3.26,-5.39,8.00,0.20,0.06,-0.03
6,1714733013647,-1.86,1.07,5.49,4.00,-1.66,2.05
6,1714733013680,2.27,2.05,2.98,3.67,-1.69,2.01
6,1714733013713,2.80,3.26,1.92,3.20,-1.27,1.77
6,1714733013746,2.63,4.57,1.56,2.64,-1.07,1.59
6,1714733013779,4.33,4.69,1.02,2.23,-0.96,1.46
6,1714733013812,5.57,5.49,0.34,1.86,-0.65,1.27
6,1714733013845,5.11,6.21,0.49,1.41,-0.30,0.97
6,1714733013879,6.40,6.19,0.22,0.98,-0.28,0.76
6,1714733013911,6.63,6.57,0.61,0.63,-0.14,0.48
6,1714733013945,6.93,7.04,0.49,0.39,0.14,0.16
6,1714733013978,6.19,7.41,1.16,0.12,0.20,-0.05
6,1714733014011,5.83,7.99,2.57,0.04,0.19,-0.14
6,1714733014044,5.67,8.26,3.40,0.03,0.23,-0.21
6,1714733014077,5.16,8.37,4.15,0.05,0.27,-0.29
6,1714733014109,4.91,8.56,4.51,0.12,0.16,-0.25
6,1714733014142,4.62,8.67,4.64,0.20,0.08,-0.17
6,1714733014175,4.51,8.73,4.27,0.19,0.18,-0.13
6,1714733014207,4.60,8.56,4.16,0.17,0.16,-0.07
6,1714733014240,5.07,8.42,4.04,0.17,0.11,-0.04
6,1714733014273,4.41,8.46,4.33,0.13,0.11,-0.05
6,1714733014306,4.51,8.17,4.30,0.15,0.12,-0.00
6,1714733014339,4.24,8.13,4.27,0.17,0.08,0.02
6,1714733014371,4.63,8.14,4.21,0.19,0.03,0.03
6,1714733014404,4.94,7.95,3.88,0.18,0.10,-0.02
6,1714733014437,4.64,8.06,4.08,0.18,0.08,-0.05
6,1714733014470,4.59,8.10,4.15,0.18,0.03,-0.04
6,1714733014503,4.75,8.28,4.05,0.17,0.05,-0.04
6,1714733014536,4.68,8.21,4.16,0.16,0.15,-0.08
6,1714733014568,4.86,7.97,4.17,0.19,0.14,-0.07
6,1714733014600,4.82,7.93,3.68,0.14,0.08,-0.10
6,1714733014632,4.92,7.87,3.73,0.05,0.09,-0.16
6,1714733014666,5.02,7.70,3.55,0.01,0.22,-0.24
6,1714733014699,4.81,7.39,2.67,-0.02,0.36,-0.34
6,1714733014732,4.91,6.98,1.89,-0.21,0.47,-0.49
6,1714733014765,5.74,5.85,0.68,-0.54,0.69,-0.80
6,1714733014797,5.13,5.68,-0.47,-0.90,1.37,-1.19
6,1714733014830,3.41,5.26,1.54,-1.50,1.24,-1.43
6,1714733014863,3.61,3.93,2.70,-1.79,1.12,-1.69
6,1714733014897,2.58,4.56,2.26,-1.93,2.03,-1.97
6,1714733014930,0.16,4.22,4.89,-2.41,1.64,-2.06
6,1714733014963,1.56,2.73,5.55,-2.54,1.32,-2.24
6,1714733014996,-0.57,2.66,6.54,-2.64,2.04,-2.44
6,1714733015028,-3.05,1.84,8.51,-2.98,1.30,-2.45
6,1714733015060,-3.07,0.24,8.32,-2.93,1.24,-2.52
6,1714733015093,-7.11,1.07,11.20,-3.23,1.48,-2.23
6,1714733015127,-5.45,-0.62,10.52,-4.07,-0.36,-2.11
6,1714733015160,-5.27,-2.79,10.52,-3.22,0.66,-2.14
6,1714733015192,-8.25,-1.91,14.62,-3.38,0.19,-1.31
6,1714733015224,-3.92,-3.53,14.81,-3.44,-0.26,-1.19
6,1714733015257,-6.47,-4.85,12.81,-2.85,1.26,-1.41
6,1714733015290,-9.15,-5.05,9.66,-1.27,2.04,-0.50
6,1714733015324,-9.97,-3.64,11.66,-0.94,1.94,0.78
6,1714733015356,-7.93,-3.98,12.17,-1.14,0.69,0.54
6,1714733015389,-4.32,-4.66,10.41,-0.25,0.14,0.11
6,1714733015423,-4.27,-2.50,10.16,-0.08,0.44,0.21
6,1714733015455,-4.70,-3.31,9.77,-0.34,0.51,0.34
6,1714733015489,-4.02,-4.10,9.11,-0.19,0.13,0.15
6,1714733015521,-3.45,-3.85,9.53,-0.15,0.04,0.05
6,1714733015555,-3.39,-3.81,8.57,-0.22,0.33,-0.01
6,1714733015587,-6.02,-4.03,8.15,-0.21,0.34,-0.08
6,1714733015620,-1.58,-6.23,10.46,0.71,-0.34,-0.18
6,1714733015653,-5.95,-5.09,11.18,0.76,0.89,0.13
6,1714733015686,-6.14,-3.83,9.08,0.39,0.28,-0.05
6,1714733015718,-5.43,-4.00,8.13,0.24,0.03,0.01
7,1714733018770,-5.51,-3.79,7.73,0.17,-0.01,-0.04
7,1714733018803,-5.45,-3.86,7.74,0.15,-0.02,-0.04
7,1714733018836,-5.55,-3.75,7.83,0.11,0.03,-0.04
7,1714733018869,-5.36,-3.85,8.31,-0.07,-0.06,-0.04
7,1714733018902,-4.97,-4.08,9.01,-0.20,0.01,-0.09
7,1714733018935,-6.05,-3.42,9.88,-0.44,-0.11,-0.22
7,1714733018969,-7.46,-3.98,11.72,-0.75,-0.61,-0.07
7,1714733019002,-7.16,-4.90,13.77,-0.58,-0.77,0.13
7,1714733019034,-7.73,-7.07,17.15,0.34,-1.89,0.32
7,1714733019068,-7.04,-7.36,17.20,1.26,-1.46,0.58
7,1714733019101,-7.84,-6.45,16.67,1.98,-1.34,0.77
7,1714733019135,-9.14,-6.86,16.62,2.38,-1.90,0.92
7,1714733019168,-8.56,-7.23,14.14,3.09,-2.65,1.00
7,1714733019202,-8.17,-6.03,12.76,3.47,-2.76,1.05
7,1714733019234,-9.12,-7.14,12.79,4.20,-3.20,1.16
7,1714733019266,-5.84,-5.49,8.94,4.37,-3.40,1.12
7,1714733019299,-4.75,-4.81,6.58,4.37,-2.41,1.24
7,1714733019331,-4.93,-3.72,4.43,4.37,-1.87,1.40
7,1714733019364,-3.40,-2.18,3.18,4.37,-1.75,1.64
7,1714733019396,-2.51,-1.00,2.44,4.37,-2.07,1.79
7,1714733019429,0.94,0.02,0.45,4.15,-2.05,1.88
7,1714733019462,3.54,2.10,-0.97,3.67,-1.01,1.68
7,1714733019495,3.64,3.92,-1.78,2.76,-0.75,1.45
7,1714733019528,6.31,4.89,-2.46,1.93,-0.56,1.26
7,1714733019561,7.69,6.00,-2.45,1.19,-0.01,0.88
7,1714733019594,8.04,6.65,-2.25,0.48,0.35,0.36
7,1714733019628,7.85,6.66,-1.44,-0.12,0.47,-0.07
7,1714733019661,7.42,6.25,0.36,-0.67,0.35,-0.48
7,1714733019693,6.86,6.01,1.32,-0.96,0.68,-0.91
7,1714733019725,5.68,5.94,2.85,-1.20,0.76,-1.19
7,1714733019758,6.25,5.29,2.34,-1.30,0.85,-1.44
7,1714733019790,3.92,5.22,2.13,-1.59,1.52,-1.76
7,1714733019822,2.57,4.42,3.80,-2.05,1.49,-1.92
7,1714733019856,1.74,2.86,3.71,-2.21,1.87,-2.05
7,1714733019889,-1.64,3.13,5.65,-2.64,2.12,-2.12
7,1714733019924,-2.54,1.29,7.60,-3.04,1.20,-2.06
7,1714733019956,-2.10,-0.28,5.63,-2.88,1.66,-1.91
7,1714733019990,-5.10,-0.49,8.11,-3.26,2.07,-1.96
7,1714733020023,-5.07,-1.31,10.15,-3.48,0.68,-1.83
7,1714733020057,-3.52,-2.28,8.24,-3.13,1.37,-1.73
7,1714733020090,-5.93,-1.91,11.26,-3.40,1.65,-1.66
7,1714733020123,-6.75,-3.22,11.52,-3.33,0.71,-1.56
7,1714733020156,-6.08,-4.26,9.14,-2.77,1.01,-1.20
7,1714733020189,-5.78,-4.85,12.56,-2.91,1.05,-1.04
7,1714733020223,-5.33,-6.31,15.10,-2.37,1.46,-1.31
7,1714733020257,-7.49,-6.70,13.18,-1.27,1.89,-0.91
7,1714733020290,-8.04,-5.65,14.72,-1.06,1.09,-0.40
7,1714733020324,-5.03,-6.43,13.47,-0.64,0.80,-0.39
7,1714733020357,-5.48,-6.32,11.11,-0.09,1.18,-0.20
7,1714733020390,-3.20,-6.63,10.92,0.46,1.50,-0.22
7,1714733020424,-10.95,-5.38,15.94,1.90,2.93,0.30
7,1714733020456,-7.69,-2.39,6.49,0.50,0.34,-0.08
7,1714733020489,-7.35,-2.90,7.88,0.25,-0.17,0.15
7,1714733020523,-3.56,-4.24,7.55,0.16,-0.29,-0.10
7,1714733020556,-5.94,-4.14,6.75,0.13,0.12,-0.04
7,1714733020589,-6.07,-4.28,7.28,0.12,-0.16,-0.04
7,1714733020623,-4.91,-4.87,7.41,0.17,0.00,-0.04
7,1714733020657,-6.26,-4.70,7.29,0.22,0.04,0.02
7,1714733020690,-6.27,-4.85,7.28,0.17,-0.28,0.09
7,1714733020723,-5.02,-4.92,7.33,0.17,-0.24,0.07
7,1714733020756,-5.00,-4.92,7.31,0.23,-0.01,0.03
7,1714733020789,-6.28,-4.49,7.69,0.07,-0.19,0.06
7,1714733020822,-5.49,-4.62,7.96,-0.04,-0.24,0.15
7,1714733020855,-5.18,-4.25,7.07,-0.03,0.05,0.19
8,1714733023910,-10.87,-6.03,14.02,1.20,-1.71,1.18
8,1714733023943,-11.01,-6.95,13.97,1.69,-2.97,1.41
8,1714733023976,-8.20,-6.82,12.38,2.19,-2.87,1.56
8,1714733024010,-6.17,-5.45,11.03,2.35,-2.25,1.70
8,1714733024043,-7.89,-5.82,11.48,2.83,-3.00,1.78
8,1714733024076,-3.49,-4.94,8.70,3.43,-3.41,1.49
8,1714733024108,-4.47,-3.61,8.20,4.04,-3.46,1.24
8,1714733024142,-1.70,-3.07,6.85,4.37,-3.55,1.33
8,1714733024175,-0.40,-1.85,5.59,4.37,-2.65,1.45
8,1714733024209,-2.20,-1.02,5.05,4.37,-2.21,1.42
8,1714733024242,0.74,0.18,3.45,4.33,-1.95,1.53
8,1714733024275,0.58,1.61,1.98,3.78,-1.77,1.58
8,1714733024308,3.74,2.46,0.55,2.98,-1.65,1.45
8,1714733024341,4.28,3.10,1.22,2.40,-1.36,1.29
8,1714733024374,6.37,3.99,0.91,1.98,-0.93,1.07
8,1714733024406,6.88,5.05,0.78,1.45,-0.55,0.78
8,1714733024438,7.12,5.41,1.05,0.95,-0.46,0.50
8,1714733024471,7.86,5.95,1.41,0.60,-0.30,0.27
8,1714733024505,7.47,6.39,1.73,0.33,-0.04,0.03
8,1714733024539,7.62,6.78,2.54,0.18,0.10,-0.16
8,1714733024572,7.28,6.90,2.37,0.04,0.30,-0.39
8,1714733024605,6.50,7.00,2.79,-0.09,0.41,-0.49
8,1714733024638,5.88,6.98,2.77,-0.22,0.71,-0.60
8,1714733024671,5.45,7.05,3.94,-0.37,0.59,-0.60
8,1714733024703,5.42,6.61,5.28,-0.44,0.34,-0.60
8,1714733024738,5.36,6.53,5.24,-0.40,0.64,-0.69
8,1714733024771,5.57,6.46,5.07,-0.32,0.74,-0.75
8,1714733024805,4.24,6.42,4.53,-0.42,0.74,-0.87
8,1714733024837,3.79,6.34,5.09,-0.62,0.74,-0.91
8,1714733024870,4.16,6.02,4.81,-0.75,0.94,-0.96
8,1714733024902,3.13,6.04,4.48,-0.91,1.18,-1.03
8,1714733024936,2.83,5.62,5.02,-1.36,1.05,-1.08
8,1714733024969,3.19,4.53,5.55,-1.58,1.03,-1.29
8,1714733025003,2.23,4.16,5.57,-1.48,1.57,-1.30
8,1714733025035,0.52,3.46,6.22,-1.81,1.38,-1.39
8,1714733025067,-0.06,2.78,5.81,-1.89,1.54,-1.47
8,1714733025100,-1.71,2.19,6.60,-2.08,2.00,-1.39
8,1714733025132,-2.41,1.37,8.91,-2.55,0.98,-1.41
8,1714733025166,-1.28,0.73,8.02,-2.45,1.27,-1.48
8,1714733025199,-3.81,0.15,10.80,-2.49,1.15,-1.35
8,1714733025232,-2.29,-1.00,11.63,-2.40,0.68,-1.43
8,1714733025265,-3.77,-1.21,10.84,-2.02,1.58,-1.43
8,1714733025297,-6.23,-1.50,13.19,-1.99,0.86,-1.16
8,1714733025329,-3.68,-2.18,12.21,-1.69,0.71,-1.11
8,1714733025363,-5.61,-1.97,10.98,-1.47,1.65,-0.98
8,1714733025397,-6.07,-1.76,12.20,-1.59,1.18,-0.74
8,1714733025430,-4.41,-2.79,11.64,-1.29,0.84,-0.72
8,1714733025463,-5.00,-2.40,10.41,-1.05,1.73,-0.58
8,1714733025496,-6.99,-1.97,12.33,-1.31,1.13,-0.48
8,1714733025529,-4.41,-3.48,11.24,-1.06,0.30,-0.46
8,1714733025562,-4.49,-3.25,12.08,-0.89,0.46,-0.46
8,1714733025596,-2.55,-4.02,11.86,-0.82,0.27,-0.74
8,1714733025628,-2.85,-4.56,10.35,-0.26,0.85,-0.73
8,1714733025662,-4.86,-4.61,8.20,-0.02,1.26,-0.61
8,1714733025695,-5.09,-4.52,5.76,-0.16,1.53,-0.56
8,1714733025727,-5.47,-4.34,3.55,-0.43,1.83,-0.62
8,1714733025760,-19.06,-8.12,18.68,1.38,0.04,0.82
8,1714733025793,-4.86,-1.10,4.34,0.41,0.45,-0.21
8,1714733025826,-7.04,-4.06,9.28,0.18,-0.15,0.08
8,1714733025859,-4.10,-5.04,7.47,0.09,-0.32,-0.07
8,1714733025893,-3.89,-4.53,6.76,0.10,0.17,0.07
8,1714733025926,-5.86,-4.33,7.70,0.16,0.18,0.05
8,1714733025959,-4.80,-4.75,7.89,0.14,-0.01,0.01
8,1714733025990,-5.50,-4.75,7.86,0.22,0.16,0.05
9,1714733029049,-6.45,-6.40,12.30,0.56,-0.76,0.39
9,1714733029082,-6.04,-6.33,12.58,1.01,-0.84,0.48
9,1714733029115,-5.98,-5.92,12.15,1.24,-0.97,0.55
9,1714733029148,-5.78,-5.28,11.48,1.29,-0.98,0.50
9,1714733029181,-5.95,-5.27,11.67,1.37,-1.36,0.45
9,1714733029214,-5.76,-5.25,12.29,1.47,-1.72,0.46
9,1714733029247,-5.17,-4.63,11.74,1.73,-1.75,0.37
9,1714733029279,-4.79,-3.33,11.02,1.79,-1.55,0.33
9,1714733029311,-4.96,-2.81,11.47,1.64,-1.65,0.31
9,1714733029343,-5.20,-2.93,11.60,1.75,-2.09,0.26
9,1714733029376,-4.69,-2.72,11.80,1.93,-2.06,0.28
9,1714733029409,-4.80,-3.09,11.21,2.27,-1.91,0.37
9,1714733029441,-4.47,-2.78,10.88,2.69,-1.76,0.43
9,1714733029475,-4.45,-3.06,9.86,3.16,-1.69,0.64
9,1714733029506,-2.76,-2.09,8.26,3.58,-1.30,0.81
9,1714733029540,-2.88,-1.23,7.87,3.60,-1.21,0.99
9,1714733029573,-1.78,-1.24,6.42,3.70,-1.53,1.13
9,1714733029606,0.33,-0.55,5.07,3.83,-1.55,1.20
9,1714733029640,0.23,1.03,4.56,3.70,-1.57,1.20
9,1714733029673,2.20,2.37,2.39,3.33,-1.36,1.15
9,1714733029706,2.63,3.76,2.00,2.92,-1.41,1.17
9,1714733029739,3.00,3.95,1.71,2.42,-1.28,1.06
9,1714733029771,4.38,5.06,0.90,1.98,-0.91,0.97
9,1714733029803,4.37,5.11,1.34,1.54,-0.76,0.91
9,1714733029835,5.32,5.88,1.07,1.05,-0.75,0.69
9,1714733029869,6.79,7.35,1.57,0.85,-0.29,0.61
9,1714733029902,6.70,7.27,1.86,0.58,-0.20,0.46
9,1714733029935,7.53,7.62,1.56,0.26,-0.15,0.20
9,1714733029967,7.94,7.63,2.07,0.07,0.03,0.03
9,1714733030000,7.92,7.81,2.25,-0.19,0.45,-0.22
9,1714733030033,7.18,7.63,2.92,-0.46,0.46,-0.44
9,1714733030065,6.81,7.12,3.75,-0.58,0.50,-0.58
9,1714733030098,6.55,6.80,4.16,-0.71,0.48,-0.76
9,1714733030131,5.55,6.84,3.16,-0.81,1.02,-0.94
9,1714733030164,4.26,6.52,4.08,-1.09,1.02,-0.97
9,1714733030196,4.17,5.56,4.49,-1.27,0.90,-1.07
9,1714733030228,3.28,5.04,2.50,-1.36,1.51,-1.23
9,1714733030261,1.14,4.77,3.79,-1.89,1.64,-1.23
9,1714733030294,0.92,2.93,4.94,-2.21,1.10,-1.26
9,1714733030326,0.46,2.75,5.32,-2.34,1.88,-1.17
9,1714733030359,-1.14,1.93,8.80,-2.77,1.40,-1.17
9,1714733030392,-0.53,-0.06,9.02,-2.56,0.93,-1.12
9,1714733030425,-2.19,0.74,11.31,-2.60,1.25,-1.01
9,1714733030457,-1.96,-0.58,11.85,-2.34,0.81,-1.08
9,1714733030490,-2.04,-0.37,9.08,-1.85,1.46,-0.94
9,1714733030524,-4.11,0.24,11.65,-2.15,0.97,-0.71
9,1714733030557,-1.58,-2.06,11.90,-1.75,0.84,-0.75
9,1714733030590,-3.17,-1.74,9.62,-1.28,1.69,-0.72
9,1714733030624,-4.79,-0.78,11.08,-1.70,1.03,-0.55
9,1714733030657,-2.37,-2.44,10.37,-1.61,0.92,-0.62
9,1714733030690,-3.48,-2.74,8.74,-1.36,1.72,-0.59
9,1714733030723,-5.29,-2.27,11.31,-1.80,0.81,-0.46
9,1714733030756,-2.82,-3.97,9.99,-1.56,1.13,-0.63
9,1714733030790,-4.61,-3.13,11.76,-1.51,1.44,-0.57
9,1714733030822,-5.41,-4.24,13.42,-1.65,0.56,-0.45
9,1714733030855,-3.63,-5.49,12.06,-1.21,0.78,-0.49
9,1714733030889,-4.41,-5.31,13.60,-0.83,0.91,-0.41
9,1714733030922,-4.42,-5.77,13.24,-0.54,0.79,-0.42
9,1714733030955,-4.20,-6.07,10.98,-0.11,1.13,-0.36
9,1714733030989,-5.19,-5.15,8.89,0.22,1.25,-0.27
9,1714733031022,-5.41,-4.45,6.95,-0.03,1.14,-0.25
9,1714733031055,-3.51,-7.34,11.94,0.94,2.28,-0.25
9,1714733031088,-10.75,-3.36,13.20,0.92,1.44,0.21
9,1714733031120,-6.98,-3.50,6.30,0.28,0.16,-0.03
10,1714733034185,-6.60,-4.66,11.88,-0.59,-0.69,-0.09
10,1714733034218,-7.04,-6.04,12.06,-0.31,-0.24,0.11
10,1714733034251,-10.95,-7.29,13.68,0.36,-0.82,0.73
10,1714733034284,-7.15,-7.41,14.21,1.39,-1.68,0.73
10,1714733034318,-6.55,-6.52,14.02,2.13,-0.88,0.84
10,1714733034351,-7.08,-5.68,13.37,2.56,-0.67,0.87
10,1714733034384,-8.31,-5.63,12.85,2.92,-1.21,1.12
10,1714733034417,-7.26,-5.07,11.85,3.40,-1.80,1.23
10,1714733034449,-7.01,-3.82,10.41,3.62,-2.12,1.15
10,1714733034482,-6.93,-3.33,9.66,3.60,-2.49,1.19
10,1714733034515,-6.11,-2.59,8.35,3.82,-2.55,1.30
10,1714733034548,-5.09,-1.26,7.83,3.83,-2.32,1.46
10,1714733034581,-4.68,-0.28,7.29,3.62,-2.01,1.53
10,1714733034614,-4.66,0.47,7.24,3.40,-2.07,1.62
10,1714733034647,-2.64,0.58,6.47,3.41,-2.47,1.83
10,1714733034679,1.05,2.13,4.20,3.25,-1.73,1.76
10,1714733034711,0.33,3.22,3.53,2.89,-1.00,1.59
10,1714733034744,1.45,3.99,2.90,2.39,-1.26,1.61
10,1714733034777,3.22,4.26,2.18,1.98,-1.33,1.55
10,1714733034809,4.35,4.67,2.44,1.54,-1.14,1.28
10,1714733034842,5.29,5.02,1.92,1.32,-0.59,1.00
10,1714733034876,4.87,5.04,2.03,1.11,-0.26,0.73
10,1714733034908,5.80,5.19,2.40,0.84,-0.37,0.41
10,1714733034941,7.21,5.80,1.27,0.64,0.05,-0.09
10,1714733034974,6.27,6.73,0.92,0.39,0.46,-0.47
10,1714733035007,5.94,7.19,1.36,0.09,0.39,-0.61
10,1714733035041,6.10,7.30,1.96,-0.31,0.33,-0.78
10,1714733035074,5.58,7.25,3.02,-0.54,0.68,-1.03
10,1714733035107,4.82,7.09,3.64,-0.70,0.79,-1.20
10,1714733035139,4.21,7.02,3.44,-0.92,1.09,-1.39
10,1714733035172,2.86,6.76,3.65,-1.29,1.42,-1.55
10,1714733035205,2.06,6.02,4.32,-1.41,1.69,-1.59
10,1714733035238,0.27,5.45,3.71,-1.50,2.23,-1.60
10,1714733035271,-1.83,5.04,6.01,-1.99,2.07,-1.60
10,1714733035303,-1.88,4.13,6.31,-2.12,1.80,-1.59
10,1714733035337,-2.62,3.38,7.51,-2.18,1.99,-1.40
10,1714733035370,-3.07,2.45,8.13,-2.44,1.29,-1.50
10,1714733035403,-3.15,1.12,6.68,-2.32,1.49,-1.48
10,1714733035436,-4.53,0.34,9.19,-2.60,1.55,-1.44
10,1714733035470,-3.85,-1.44,9.05,-2.55,0.69,-1.54
10,1714733035502,-4.94,-1.52,8.30,-2.46,1.30,-1.43
10,1714733035535,-5.93,-1.50,10.58,-2.99,0.81,-1.49
10,1714733035568,-5.07,-3.48,9.45,-2.68,0.53,-1.41
10,1714733035601,-7.01,-3.00,11.56,-2.71,0.60,-0.99
10,1714733035634,-5.11,-4.37,13.57,-2.80,-0.07,-1.06
10,1714733035667,-3.68,-5.59,12.18,-1.80,0.80,-1.15
10,1714733035700,-8.56,-4.19,12.46,-1.51,1.21,-0.61
10,1714733035733,-5.97,-5.26,13.56,-1.50,0.27,-0.66
10,1714733035766,-3.48,-5.62,11.11,-0.79,1.09,-0.77
10,1714733035800,-4.49,-4.85,7.94,-0.09,2.72,-0.52
10,1714733035832,-15.78,-2.73,13.45,-0.25,0.95,0.12
10,1714733035865,-2.64,-8.51,16.47,1.29,-0.10,0.19
10,1714733035898,-1.26,-3.00,6.87,0.68,0.55,0.04
10,1714733035932,-6.56,-3.36,7.38,0.71,0.72,-0.03
10,1714733035965,-6.64,-4.09,8.08,0.14,-0.40,-0.00
10,1714733035997,-3.34,-4.51,7.55,-0.02,-0.23,-0.05
10,1714733036030,-5.47,-4.24,8.19,0.05,0.14,-0.00
10,1714733036063,-5.31,-4.65,7.64,0.08,0.01,0.00
10,1714733036097,-5.71,-4.63,7.62,0.13,-0.04,0.05
10,1714733036130,-4.65,-4.64,7.64,0.13,-0.12,0.06
10,1714733036163,-4.93,-4.53,7.78,0.23,0.13,0.03
10,1714733036196,-5.51,-4.30,7.65,0.27,0.13,0.01
10,1714733036228,-5.49,-4.29,7.80,0.26,0.03,0.01
10,1714733036260,-5.33,-4.21,7.77,0.25,0.03,-0.00
11,1714733039295,-4.89,-4.54,8.40,0.04,0.03,-0.02
11,1714733039328,-5.47,-4.48,7.90,0.09,0.17,-0.02
11,1714733039362,-5.85,-4.69,8.10,0.05,-0.09,0.04
11,1714733039395,-5.59,-4.35,8.54,0.12,-0.16,-0.02
11,1714733039428,-6.52,-4.74,9.77,0.20,-0.28,0.10
11,1714733039461,-6.78,-5.17,10.44,0.60,-0.28,0.27
11,1714733039494,-6.65,-4.71,11.09,0.91,-0.49,0.33
11,1714733039528,-6.16,-4.41,11.41,1.13,-0.35,0.41
11,1714733039560,-6.65,-4.28,11.76,1.32,-0.35,0.56
11,1714733039592,-6.63,-4.39,11.76,1.60,-0.54,0.70
11,1714733039626,-6.28,-3.60,11.36,1.76,-0.86,0.80
11,1714733039659,-6.02,-2.96,10.87,1.81,-0.87,0.84
11,1714733039692,-5.84,-2.74,10.73,1.88,-0.97,0.92
11,1714733039726,-5.22,-2.24,10.14,2.02,-0.97,0.96
11,1714733039759,-5.35,-1.17,10.12,1.96,-1.00,0.97
11,1714733039791,-5.17,-1.12,10.05,1.90,-1.26,1.03
11,1714733039824,-4.22,-0.33,9.43,1.92,-1.31,1.03
11,1714733039856,-4.14,0.38,9.45,1.91,-1.15,1.01
11,1714733039890,-3.79,0.65,9.53,1.80,-1.28,1.05
11,1714733039923,-3.55,1.21,9.23,1.74,-1.49,1.04
11,1714733039956,-2.74,1.48,9.14,1.79,-1.39,1.02
11,1714733039989,-2.23,1.77,8.93,1.84,-1.23,1.02
11,1714733040022,-1.93,2.42,8.39,1.85,-1.12,1.00
11,1714733040055,-1.81,2.89,8.17,1.74,-1.17,0.99
11,1714733040087,-0.73,3.14,7.82,1.72,-1.20,0.96
11,1714733040120,-0.47,3.29,7.40,1.74,-0.98,0.95
11,1714733040153,-0.06,4.12,7.22,1.66,-0.79,0.95
11,1714733040185,0.28,4.04,7.25,1.57,-0.76,0.93
11,1714733040218,1.69,4.45,6.51,1.58,-0.60,0.90
11,1714733040252,0.24,5.09,6.80,1.45,-0.23,0.86
11,1714733040284,1.25,5.21,6.52,1.27,-0.70,0.91
11,1714733040317,2.15,5.53,6.71,1.21,-0.98,0.90
11,1714733040350,3.94,5.66,6.24,1.22,-0.90,0.79
11,1714733040384,4.58,6.00,6.23,1.20,-0.63,0.62
11,1714733040416,4.62,6.68,5.09,1.11,-0.68,0.45
11,1714733040449,4.45,7.18,3.64,0.87,-0.89,0.34
11,1714733040481,5.93,7.28,2.43,0.61,-0.39,0.18
11,1714733040514,5.39,7.51,1.99,0.31,0.21,-0.06
11,1714733040548,4.32,7.03,2.71,-0.20,-0.07,-0.20
11,1714733040581,5.43,6.69,3.30,-0.53,-0.04,-0.36
11,1714733040614,4.76,6.19,3.36,-0.54,0.81,-0.60
11,1714733040646,3.21,5.79,4.83,-0.75,0.86,-0.72
11,1714733040680,3.40,5.47,5.15,-0.89,0.74,-0.85
11,1714733040712,3.10,5.53,4.72,-0.91,1.34,-0.98
11,1714733040744,1.82,5.77,5.76,-1.12,1.52,-1.07
11,1714733040777,1.72,4.48,5.31,-1.34,1.29,-1.23
11,1714733040810,0.42,4.25,5.75,-1.57,1.60,-1.28
11,1714733040842,-1.44,3.21,7.43,-1.84,1.47,-1.29
11,1714733040876,-2.04,2.31,6.57,-1.93,1.48,-1.24
11,1714733040909,-2.17,2.00,9.04,-2.19,1.36,-1.16
11,1714733040941,-1.53,0.52,10.44,-2.05,1.29,-1.24
11,1714733040974,-3.34,0.67,9.24,-1.87,1.50,-1.30
11,1714733041008,-3.40,0.12,11.48,-1.99,0.95,-1.30
11,1714733041040,-2.21,-0.78,11.23,-1.80,1.10,-1.44
11,1714733041074,-5.00,-1.23,9.56,-1.72,1.25,-1.38
11,1714733041107,-5.32,-1.91,10.71,-1.88,0.41,-1.25
11,1714733041140,-4.65,-1.96,11.23,-1.68,0.98,-1.25
11,1714733041173,-7.25,-1.70,10.28,-1.55,1.40,-0.97
11,1714733041205,-6.45,-1.40,12.37,-1.95,0.08,-0.67
11,1714733041237,-2.80,-2.99,12.66,-1.69,0.16,-0.80
11,1714733041270,-5.47,-3.45,11.95,-1.15,1.35,-0.74
11,1714733041303,-6.60,-3.04,13.04,-1.06,1.27,-0.48
11,1714733041336,-4.66,-3.62,11.90,-0.78,0.72,-0.44
11,1714733041370,-5.60,-3.88,10.58,-0.60,0.63,-0.39
12,1714733044429,-5.46,-4.40,8.23,-0.09,-0.12,-0.09
12,1714733044462,-5.84,-4.42,8.95,-0.18,-0.42,0.00
12,1714733044496,-5.79,-5.46,10.16,0.04,-0.20,0.08
12,1714733044529,-6.25,-5.30,11.33,0.64,-0.19,0.19
12,1714733044563,-6.08,-4.96,11.84,0.81,-0.60,0.33
12,1714733044595,-5.31,-4.81,11.45,0.91,-0.67,0.35
12,1714733044628,-5.42,-4.60,11.39,1.23,-0.67,0.37
12,1714733044662,-5.68,-4.14,11.52,1.34,-0.94,0.43
12,1714733044694,-5.63,-4.25,11.44,1.46,-1.07,0.46
12,1714733044727,-4.56,-3.86,10.62,1.79,-0.84,0.52
12,1714733044760,-4.97,-2.97,10.16,1.85,-0.81,0.54
12,1714733044793,-4.47,-2.53,9.30,1.85,-1.02,0.52
12,1714733044827,-3.89,-1.94,8.55,1.87,-0.87,0.53
12,1714733044860,-4.22,-1.21,8.33,1.70,-0.89,0.54
12,1714733044894,-4.36,-0.88,8.81,1.48,-1.40,0.56
12,1714733044926,-2.61,-0.71,8.68,1.48,-1.26,0.58
12,1714733044960,-2.72,-0.28,9.56,1.48,-0.82,0.56
12,1714733044992,-2.87,-0.07,10.51,1.47,-0.97,0.56
12,1714733045026,-2.17,0.49,9.79,1.65,-0.85,0.59
12,1714733045059,-2.04,1.14,9.57,1.69,-0.67,0.61
12,1714733045092,-1.81,1.68,9.39,1.56,-0.87,0.61
12,1714733045125,-1.16,2.05,9.05,1.51,-1.02,0.61
12,1714733045157,0.09,2.38,8.94,1.53,-0.54,0.52
12,1714733045190,-0.93,2.90,8.98,1.52,-0.25,0.51
12,1714733045223,-1.10,3.34,9.08,1.41,-0.74,0.59
12,1714733045255,0.62,3.42,9.05,1.42,-0.65,0.55
12,1714733045288,0.13,4.08,8.77,1.38,-0.36,0.50
12,1714733045321,-0.37,4.29,9.00,1.24,-0.58,0.55
12,1714733045354,0.71,4.46,8.72,1.26,-0.67,0.58
12,1714733045387,1.03,5.06,8.41,1.28,-0.43,0.58
12,1714733045420,0.74,5.18,8.66,1.17,-0.46,0.58
12,1714733045452,0.93,5.01,8.43,1.11,-0.69,0.59
12,1714733045485,2.61,5.29,7.11,1.21,-0.44,0.55
12,1714733045517,2.16,5.77,6.82,1.16,-0.02,0.47
12,1714733045563,2.24,5.63,6.50,0.99,-0.21,0.41
12,1714733045595,2.56,5.68,5.93,0.93,-0.24,0.33
12,1714733045632,3.26,6.01,5.14,0.82,-0.04,0.21
12,1714733045664,3.71,6.17,4.32,0.56,0.26,0.00
12,1714733045697,3.69,6.33,3.82,0.23,0.39,-0.20
12,1714733045730,3.33,6.30,3.69,-0.11,0.45,-0.38
12,1714733045763,2.90,6.17,4.57,-0.46,0.50,-0.54
12,1714733045795,2.61,5.77,5.03,-0.70,0.62,-0.72
12,1714733045829,1.93,5.60,5.84,-0.83,0.74,-0.82
12,1714733045862,1.24,5.31,6.70,-0.96,0.81,-0.94
12,1714733045894,0.66,5.07,6.49,-1.00,1.27,-1.03
12,1714733045927,-0.80,4.78,7.67,-1.20,1.29,-1.03
12,1714733045960,-1.68,3.82,8.34,-1.32,0.90,-1.02
12,1714733045992,-1.21,3.83,8.33,-1.32,1.16,-0.96
12,1714733046026,-1.11,3.39,9.72,-1.36,1.21,-0.98
12,1714733046059,-1.86,2.58,9.40,-1.31,1.16,-1.08
12,1714733046093,-2.81,2.18,9.39,-1.47,0.80,-1.06
12,1714733046126,-2.57,1.21,10.18,-1.40,0.56,-1.00
12,1714733046159,-2.85,1.25,9.41,-1.37,0.95,-1.02
12,1714733046192,-4.13,0.61,10.29,-1.54,0.66,-0.97
12,1714733046225,-3.47,-0.23,10.16,-1.50,0.45,-0.95
12,1714733046258,-3.54,-0.68,9.92,-1.42,0.77,-0.97
12,1714733046291,-4.41,-1.15,9.98,-1.48,0.67,-0.96
12,1714733046324,-5.01,-1.47,9.17,-1.47,0.70,-0.90
12,1714733046356,-5.30,-1.79,9.57,-1.61,0.72,-0.75
12,1714733046388,-4.88,-2.45,9.70,-1.65,0.68,-0.69
12,1714733046422,-5.37,-2.93,9.32,-1.59,0.58,-0.61
12,1714733046455,-4.49,-3.51,10.43,-1.68,0.42,-0.60
12,1714733046488,-4.37,-4.48,10.52,-1.37,0.95,-0.66
12,1714733046525,-6.35,-4.55,10.27,-1.18,1.00,-0.59
13,1714733049577,-5.50,-4.72,7.30,0.02,-0.04,-0.15
13,1714733049610,-6.17,-5.04,7.97,0.03,-0.15,-0.00
13,1714733049643,-5.60,-5.20,8.69,0.00,-0.35,0.08
13,1714733049676,-4.88,-5.55,9.34,0.24,-0.38,0.12
13,1714733049709,-5.12,-5.50,9.83,0.48,-0.27,0.17
13,1714733049742,-5.11,-5.15,9.77,0.62,-0.21,0.19
13,1714733049775,-6.08,-5.20,10.19,0.89,-0.23,0.21
13,1714733049807,-5.75,-4.88,10.44,1.12,-0.43,0.29
13,1714733049840,-5.50,-4.49,10.35,1.25,-0.42,0.36
13,1714733049872,-6.06,-4.29,10.92,1.35,-0.54,0.47
13,1714733049905,-5.72,-4.16,10.92,1.57,-0.70,0.56
13,1714733049938,-5.35,-3.36,10.70,1.64,-0.83,0.59
13,1714733049972,-4.70,-3.05,10.22,1.70,-0.78,0.62
13,1714733050007,-5.05,-2.33,10.25,1.71,-0.87,0.64
13,1714733050040,-4.69,-1.98,9.95,1.72,-0.96,0.68
13,1714733050073,-4.79,-1.51,10.40,1.72,-1.08,0.72
13,1714733050106,-4.14,-1.29,10.76,1.71,-1.28,0.73
13,1714733050139,-3.65,-0.78,10.33,1.85,-1.09,0.73
13,1714733050172,-4.07,-0.27,10.43,1.86,-1.05,0.78
13,1714733050205,-3.11,0.05,10.01,1.92,-1.07,0.83
13,1714733050240,-2.78,0.52,9.34,1.95,-0.97,0.82
13,1714733050271,-2.98,1.27,9.00,1.84,-0.91,0.85
13,1714733050304,-2.60,1.46,9.39,1.79,-1.06,0.94
13,1714733050337,-1.94,1.59,9.13,1.86,-1.22,0.93
13,1714733050369,-0.99,2.44,8.37,1.89,-0.94,0.89
13,1714733050402,-1.00,2.76,8.16,1.84,-0.72,0.89
13,1714733050435,-0.63,3.08,8.18,1.79,-0.78,0.90
13,1714733050468,0.13,3.37,7.78,1.80,-0.74,0.90
13,1714733050501,-0.02,3.73,7.41,1.75,-0.63,0.86
13,1714733050533,0.28,3.74,7.11,1.61,-0.73,0.86
13,1714733050567,0.38,4.39,7.47,1.57,-0.80,0.85
13,1714733050600,1.25,5.27,7.03,1.54,-0.89,0.87
13,1714733050634,3.06,5.82,6.30,1.51,-0.65,0.84
13,1714733050667,3.11,6.17,6.16,1.39,-0.41,0.77
13,1714733050699,3.25,6.64,6.00,1.20,-0.51,0.70
13,1714733050731,3.89,6.66,5.75,1.01,-0.67,0.61
13,1714733050764,4.03,6.58,5.36,0.94,-0.41,0.42
13,1714733050797,4.32,7.25,4.52,0.89,0.09,0.31
13,1714733050831,4.41,7.56,3.79,0.65,0.25,0.24
13,1714733050864,4.81,7.69,3.18,0.30,0.11,0.18
13,1714733050897,6.36,7.42,3.13,-0.03,0.22,-0.03
13,1714733050930,6.65,6.89,3.13,-0.28,0.60,-0.43
13,1714733050962,4.36,6.90,3.34,-0.63,0.91,-0.80
13,1714733050996,4.20,6.17,3.77,-0.96,0.74,-0.98
13,1714733051029,3.81,5.61,3.22,-1.09,1.35,-1.22
13,1714733051062,1.80,5.09,5.02,-1.48,1.44,-1.44
13,1714733051095,1.17,4.34,5.18,-1.64,1.25,-1.56
13,1714733051128,-0.71,4.10,6.55,-1.82,1.65,-1.53
13,1714733051161,-1.52,3.15,8.32,-2.01,1.19,-1.49
13,1714733051193,-0.94,1.98,7.45,-1.86,1.44,-1.56
13,1714733051226,-4.02,1.72,8.32,-2.08,1.56,-1.43
13,1714733051258,-3.69,0.50,10.18,-2.18,0.79,-1.32
13,1714733051291,-2.24,0.26,7.58,-2.00,1.29,-1.37
13,1714733051324,-5.33,0.11,9.16,-2.37,1.28,-1.34
13,1714733051356,-5.13,-1.36,10.16,-2.42,0.65,-1.16
13,1714733051389,-4.01,-1.72,8.12,-2.21,0.97,-1.08
13,1714733051421,-4.64,-2.15,10.15,-2.43,0.79,-1.09
13,1714733051454,-3.02,-4.12,10.50,-2.15,0.84,-1.29
13,1714733051487,-4.75,-4.77,8.54,-1.69,1.48,-1.28
13,1714733051520,-6.05,-4.36,10.27,-1.84,1.07,-1.17
13,1714733051553,-4.90,-5.43,11.85,-1.77,0.35,-1.15
13,1714733051586,-4.91,-6.54,10.93,-1.17,1.23,-0.98
13,1714733051618,-7.22,-5.57,10.59,-0.97,1.50,-0.88
13,1714733051651,-7.01,-5.01,10.16,-1.12,0.39,-0.74
14,1714733054688,-3.13,0.11,7.96,3.19,-1.60,1.19
14,1714733054721,-1.19,1.26,5.94,3.37,-1.35,1.30
14,1714733054754,0.87,2.22,3.19,3.13,-0.45,1.22
14,1714733054787,1.22,3.65,2.30,2.59,0.03,1.01
14,1714733054820,1.46,3.74,1.14,1.78,-0.53,0.91
14,1714733054853,3.17,3.83,0.18,1.05,-0.57,0.64
14,1714733054886,4.14,4.30,1.14,0.40,-0.22,0.28
14,1714733054919,4.35,4.36,1.37,-0.14,0.34,-0.13
14,1714733054951,3.04,4.91,2.94,-0.62,0.50,-0.45
14,1714733054985,2.27,4.98,5.40,-0.91,-0.03,-0.52
14,1714733055018,2.87,5.15,5.64,-1.01,0.31,-0.78
14,1714733055051,1.50,5.48,8.29,-1.06,0.99,-0.99
14,1714733055084,0.21,5.24,9.58,-1.00,0.78,-0.99
14,1714733055117,0.87,4.37,6.32,-0.78,1.38,-1.06
14,1714733055150,-2.52,4.24,7.04,-0.96,1.73,-1.12
14,1714733055182,-1.61,3.04,6.82,-1.29,0.68,-1.08
14,1714733055214,-0.61,1.70,4.05,-1.23,1.46,-1.21
14,1714733055247,-2.57,1.38,6.00,-1.61,1.52,-1.33
14,1714733055281,-1.91,0.14,6.21,-1.79,1.28,-1.52
14,1714733055314,-3.13,-0.46,4.10,-1.71,2.15,-1.67
14,1714733055347,-6.46,0.67,7.80,-2.45,1.37,-1.64
14,1714733055380,-4.36,-1.72,9.25,-2.55,0.84,-1.60
14,1714733055412,-5.54,-2.18,10.47,-2.49,1.48,-1.62
14,1714733055444,-7.89,-2.66,13.32,-2.72,0.69,-1.54
14,1714733055478,-7.49,-4.68,13.34,-2.31,0.45,-1.30
14,1714733055511,-8.07,-4.36,14.61,-1.91,0.64,-0.88
14,1714733055544,-6.62,-5.11,14.95,-1.48,0.08,-0.74
14,1714733055577,-5.98,-5.09,12.75,-0.87,0.39,-0.74
14,1714733055610,-6.82,-4.28,12.12,-0.55,0.84,-0.45
14,1714733055642,-6.06,-4.52,11.60,-0.36,0.53,-0.32
14,1714733055676,-5.11,-4.49,9.39,-0.20,0.17,-0.28
14,1714733055709,-6.08,-3.86,8.60,-0.26,0.09,-0.26
14,1714733055743,-4.23,-6.61,12.67,0.61,0.22,0.10
14,1714733055776,-3.57,-4.41,7.17,0.35,0.64,-0.03
14,1714733055809,-6.60,-4.09,7.37,0.24,0.31,0.01
14,1714733055843,-5.57,-4.67,7.87,0.02,-0.26,0.09
14,1714733055874,-3.81,-4.65,7.76,0.05,-0.04,0.01
14,1714733055907,-5.44,-4.37,7.95,0.15,0.16,-0.01
14,1714733055941,-5.41,-4.63,7.93,0.14,-0.01,0.00
14,1714733055974,-4.82,-4.76,7.93,0.13,0.00,0.01
14,1714733056006,-4.85,-4.70,7.58,0.13,0.09,0.01
14,1714733056038,-5.42,-4.43,8.00,0.13,0.03,-0.02
14,1714733056072,-5.00,-4.47,7.82,0.13,-0.03,-0.03
14,1714733056106,-4.89,-4.67,7.35,0.17,0.02,-0.04
14,1714733056139,-5.20,-4.57,7.38,0.19,0.05,-0.03
14,1714733056172,-5.32,-4.46,7.65,0.18,-0.00,-0.02
14,1714733056205,-5.20,-4.61,8.19,0.16,-0.02,-0.00
14,1714733056238,-4.75,-4.57,7.69,0.17,0.06,-0.02
14,1714733056271,-4.97,-4.83,7.46,0.17,0.03,-0.04
14,1714733056305,-5.00,-4.68,7.55,0.18,0.01,-0.05
14,1714733056338,-5.04,-4.67,7.68,0.20,0.02,-0.06
14,1714733056371,-4.97,-4.71,7.66,0.22,0.04,-0.06
14,1714733056404,-5.16,-4.66,7.75,0.22,0.02,-0.05
14,1714733056437,-5.12,-4.60,7.64,0.22,-0.03,-0.04
14,1714733056470,-4.88,-4.70,7.67,0.22,-0.05,-0.03
14,1714733056504,-4.98,-4.62,7.66,0.22,-0.05,-0.03
14,1714733056538,-4.94,-4.62,7.86,0.23,-0.03,-0.04
14,1714733056572,-5.02,-4.58,7.74,0.23,-0.02,-0.02
14,1714733056605,-4.92,-4.64,7.82,0.23,-0.02,-0.03
14,1714733056638,-4.89,-4.66,7.74,0.26,0.01,-0.03
14,1714733056670,-5.14,-4.65,7.70,0.27,0.01,-0.03
14,1714733056703,-4.83,-4.68,7.74,0.27,0.00,-0.03
14,1714733056735,-4.87,-4.64,7.90,0.26,0.01,-0.03
14,1714733056767,-4.99,-4.68,7.85,0.24,0.03,-0.02
15,1714733059830,-4.89,-4.49,7.92,0.17,0.01,-0.02
15,1714733059862,-4.94,-4.58,7.77,0.16,0.08,-0.04
15,1714733059894,-4.82,-4.61,8.01,0.15,0.06,-0.07
15,1714733059927,-5.05,-4.76,7.78,0.15,0.11,-0.10
15,1714733059960,-5.18,-4.59,7.83,0.19,0.03,-0.11
15,1714733059992,-5.62,-4.53,8.27,0.23,-0.04,-0.07
15,1714733060025,-5.46,-5.27,9.04,0.38,-0.01,0.02
15,1714733060058,-6.51,-5.07,9.69,0.60,0.11,0.12
15,1714733060091,-6.86,-4.83,10.44,0.76,-0.22,0.28
15,1714733060124,-5.85,-4.75,10.39,0.98,-0.25,0.37
15,1714733060158,-5.49,-4.26,10.35,1.15,-0.24,0.39
15,1714733060191,-5.26,-3.72,9.82,1.25,-0.13,0.39
15,1714733060224,-5.62,-3.30,9.45,1.27,-0.14,0.44
15,1714733060257,-5.35,-3.00,9.21,1.24,-0.34,0.48
15,1714733060291,-5.40,-2.66,8.95,1.19,-0.42,0.51
15,1714733060324,-5.39,-2.41,8.82,1.16,-0.43,0.56
15,1714733060357,-5.06,-2.19,8.59,1.09,-0.50,0.59
15,1714733060390,-4.81,-1.72,8.82,1.04,-0.56,0.57
15,1714733060424,-4.64,-1.58,8.72,0.94,-0.59,0.56
15,1714733060457,-4.41,-1.28,8.93,0.87,-0.64,0.55
15,1714733060490,-4.33,-1.19,9.20,0.85,-0.55,0.52
15,1714733060522,-4.20,-0.83,9.35,0.84,-0.57,0.51
15,1714733060555,-3.89,-0.53,9.40,0.81,-0.59,0.47
15,1714733060588,-3.81,-0.37,9.53,0.83,-0.56,0.43
15,1714733060621,-4.02,0.01,10.02,0.81,-0.59,0.43
15,1714733060655,-3.74,0.16,10.13,0.81,-0.63,0.44
15,1714733060688,-3.60,0.28,10.32,0.87,-0.59,0.45
15,1714733060721,-3.57,0.64,10.53,0.92,-0.61,0.44
15,1714733060754,-3.68,0.74,10.77,0.95,-0.63,0.47
15,1714733060788,-3.47,0.91,11.31,1.02,-0.73,0.51
15,1714733060820,-2.89,1.18,11.09,1.17,-0.76,0.55
15,1714733060853,-2.75,1.52,11.04,1.26,-0.66,0.56
15,1714733060887,-3.03,1.50,11.29,1.34,-0.74,0.58
15,1714733060920,-2.18,1.67,10.52,1.59,-0.65,0.63
15,1714733060952,-1.86,2.56,9.90,1.62,-0.48,0.62
15,1714733060985,-1.99,2.62,9.47,1.59,-0.61,0.62
15,1714733061018,-1.09,2.83,8.83,1.63,-0.59,0.63
15,1714733061051,-1.29,3.37,8.71,1.56,-0.53,0.63
15,1714733061084,-1.07,3.72,8.27,1.46,-0.55,0.60
15,1714733061117,-0.39,3.61,7.87,1.48,-0.57,0.60
15,1714733061151,-0.81,4.38,7.89,1.40,-0.59,0.58
15,1714733061185,0.34,4.53,7.74,1.27,-0.49,0.51
15,1714733061217,-0.09,4.96,7.67,1.31,-0.29,0.52
15,1714733061250,-0.95,5.95,8.02,1.15,-0.73,0.60
15,1714733061282,1.19,6.00,7.61,0.96,-0.88,0.60
15,1714733061316,1.81,6.04,7.00,0.95,-0.44,0.49
15,1714733061349,1.35,6.80,7.24,0.84,-0.23,0.44
15,1714733061382,1.36,6.44,7.60,0.66,-0.52,0.43
15,1714733061414,2.45,6.51,6.96,0.70,-0.42,0.36
15,1714733061447,2.07,6.89,6.52,0.68,-0.07,0.29
15,1714733061480,1.74,7.08,6.69,0.55,-0.11,0.26
15,1714733061513,2.14,6.96,6.33,0.42,-0.24,0.26
15,1714733061545,2.25,7.11,6.26,0.40,-0.03,0.22
15,1714733061579,2.29,7.20,6.55,0.27,-0.01,0.18
15,1714733061611,2.28,7.22,6.60,0.20,-0.04,0.14
15,1714733061644,2.23,7.23,6.72,0.19,0.02,0.13
15,1714733061677,2.37,7.12,7.09,0.17,0.05,0.09
15,1714733061710,2.55,7.12,7.16,0.17,0.09,0.04
15,1714733061744,2.41,7.09,7.20,0.15,0.12,-0.03
15,1714733061777,2.17,7.14,7.51,0.15,0.06,-0.03
15,1714733061810,2.24,7.10,7.32,0.15,0.10,-0.06
15,1714733061842,1.96,7.19,7.57,0.14,0.09,-0.07
15,1714733061875,1.97,7.02,7.69,0.16,0.06,-0.06
15,1714733061908,1.90,7.15,7.68,0.17,0.06,-0.07
16,1714733064963,-4.93,-4.32,7.96,0.20,0.02,-0.03
16,1714733064996,-4.95,-4.25,7.97,0.20,0.03,-0.03
16,1714733065029,-4.90,-4.20,7.96,0.17,0.03,-0.05
16,1714733065062,-5.04,-4.26,8.09,0.12,0.04,-0.04
16,1714733065095,-4.74,-4.49,8.09,0.02,0.04,-0.08
16,1714733065128,-4.78,-4.34,8.70,-0.08,0.07,-0.12
16,1714733065161,-5.34,-4.34,8.23,-0.12,0.04,-0.17
16,1714733065194,-5.62,-4.80,8.97,-0.20,-0.13,-0.16
16,1714733065226,-5.45,-5.01,9.47,-0.29,-0.25,-0.17
16,1714733065259,-5.35,-5.86,10.51,-0.16,-0.13,-0.07
16,1714733065293,-5.62,-6.52,11.57,0.37,0.02,-0.00
16,1714733065326,-8.12,-6.51,13.73,0.86,-0.62,0.36
16,1714733065359,-7.35,-6.87,14.19,1.26,-1.05,0.64
16,1714733065392,-6.04,-6.34,13.89,1.75,-0.98,0.71
16,1714733065425,-6.74,-5.45,13.75,2.20,-0.86,0.85
16,1714733065458,-6.58,-4.99,12.63,2.48,-1.38,0.90
16,1714733065490,-6.63,-3.95,11.91,2.72,-1.57,0.95
16,1714733065524,-5.98,-3.77,11.53,2.92,-1.62,1.07
16,1714733065557,-6.55,-2.93,11.14,3.23,-2.07,1.14
16,1714733065590,-5.44,-2.08,10.36,3.35,-2.37,1.20
16,1714733065623,-4.20,-1.94,9.03,3.51,-2.07,1.21
16,1714733065656,-4.06,-1.19,8.07,3.85,-1.91,1.34
16,1714733065689,-4.15,-0.05,7.29,3.72,-1.73,1.50
16,1714733065722,-2.66,0.51,5.87,3.63,-1.64,1.58
16,1714733065755,-1.09,1.59,4.64,3.44,-1.59,1.70
16,1714733065788,-0.21,2.32,3.99,3.04,-1.56,1.69
16,1714733065820,1.48,3.03,2.94,2.70,-1.44,1.65
16,1714733065854,2.13,4.15,2.97,2.32,-1.20,1.63
16,1714733065886,3.92,4.47,2.49,1.88,-1.27,1.45
16,1714733065919,5.16,4.80,2.06,1.65,-1.14,1.29
16,1714733065953,6.40,5.60,1.45,1.36,-0.66,0.98
16,1714733065986,6.16,5.91,1.06,0.93,-0.47,0.64
16,1714733066019,7.01,6.15,0.17,0.64,-0.17,0.36
16,1714733066053,7.03,6.27,-0.03,0.21,0.16,0.02
16,1714733066087,7.21,6.18,0.10,-0.25,0.44,-0.38
16,1714733066119,6.39,5.80,-0.77,-0.69,0.89,-0.75
16,1714733066151,5.18,5.50,0.65,-1.25,0.84,-0.92
16,1714733066183,5.97,4.42,0.71,-1.64,0.88,-1.20
16,1714733066216,3.56,3.71,1.33,-1.91,1.91,-1.56
16,1714733066250,0.69,2.20,4.24,-2.42,1.54,-1.71
16,1714733066283,-1.37,1.29,4.72,-2.46,2.03,-1.73
16,1714733066316,-3.52,1.74,7.66,-2.64,2.20,-1.53
16,1714733066348,-2.70,0.64,8.82,-2.62,1.88,-1.43
16,1714733066380,-3.89,0.50,9.90,-2.28,2.26,-1.29
16,1714733066413,-3.35,1.16,10.56,-2.37,2.04,-1.20
16,1714733066446,-2.05,-0.33,10.41,-2.23,1.63,-1.33
16,1714733066480,-2.08,-0.32,9.64,-2.04,2.44,-1.73
16,1714733066513,-5.85,0.21,9.74,-2.50,2.28,-1.83
16,1714733066547,-4.14,-2.43,10.82,-2.80,0.96,-1.78
16,1714733066578,-3.60,-3.48,12.73,-2.52,1.57,-1.93
16,1714733066612,-7.48,-3.45,11.55,-2.55,1.94,-1.98
16,1714733066644,-8.55,-5.59,14.36,-2.66,0.25,-1.38
16,1714733066676,-5.08,-7.14,15.34,-1.75,0.53,-1.23
16,1714733066710,-6.81,-6.29,12.19,-0.62,2.22,-0.99
16,1714733066743,-9.26,-4.73,8.70,-0.40,2.07,-0.59
16,1714733066776,-9.27,-3.86,8.05,-0.75,1.26,-0.31
16,1714733066809,-5.84,-4.33,15.93,0.36,-0.33,0.38
16,1714733066842,-3.26,-2.67,4.14,-0.09,0.34,0.17
16,1714733066875,-4.75,-5.57,9.92,0.16,-0.37,0.05
16,1714733066909,-3.31,-4.66,6.57,0.01,0.07,-0.06
16,1714733066942,-5.26,-4.41,6.84,0.07,0.20,-0.01
16,1714733066975,-6.09,-4.58,7.89,0.17,0.14,-0.01
16,1714733067008,-5.33,-5.08,7.69,0.24,-0.02,-0.01
16,1714733067040,-5.55,-4.92,7.54,0.33,0.09,0.04
17,1714733070100,-5.28,-4.90,8.16,-0.05,-0.02,-0.19
17,1714733070134,-6.83,-4.88,9.90,-0.31,-0.27,-0.15
17,1714733070167,-7.23,-6.33,11.38,-0.59,-0.85,0.08
17,1714733070199,-8.32,-8.01,14.38,0.04,-0.82,0.26
17,1714733070232,-9.05,-9.28,18.10,1.36,-1.36,0.83
17,1714733070265,-8.26,-8.66,17.62,2.38,-1.29,1.18
17,1714733070298,-7.98,-7.45,16.01,3.12,-1.21,1.30
17,1714733070330,-8.82,-6.66,14.97,3.57,-2.05,1.41
17,1714733070363,-6.55,-5.32,12.18,3.91,-2.68,1.37
17,1714733070396,-6.43,-4.54,10.88,3.99,-2.75,1.33
17,1714733070429,-6.00,-3.54,9.39,4.32,-2.55,1.32
17,1714733070463,-5.43,-2.17,7.79,4.32,-2.37,1.41
17,1714733070496,-4.66,-1.33,6.69,4.13,-2.09,1.47
17,1714733070529,-3.40,-0.91,5.15,4.01,-1.91,1.53
17,1714733070562,-1.70,1.10,3.46,3.78,-1.63,1.75
17,1714733070594,-1.00,1.47,3.69,3.24,-1.87,1.69
17,1714733070627,1.05,2.25,2.17,2.83,-2.05,1.57
17,1714733070660,2.61,3.36,1.23,2.56,-1.49,1.52
17,1714733070693,3.21,4.35,0.79,2.11,-1.16,1.32
17,1714733070727,3.83,4.95,-0.17,1.58,-0.93,1.13
17,1714733070760,5.26,5.76,-0.46,1.15,-0.38,0.98
17,1714733070793,5.48,5.93,0.28,0.75,-0.06,0.77
17,1714733070825,5.68,6.34,1.72,0.33,-0.26,0.50
17,1714733070857,6.83,6.64,2.56,0.21,0.00,0.26
17,1714733070889,7.24,6.51,2.90,0.15,0.24,-0.05
17,1714733070923,6.58,6.58,3.07,0.04,0.37,-0.35
17,1714733070956,5.82,6.59,3.30,-0.14,0.47,-0.59
17,1714733070989,5.26,6.64,3.80,-0.32,0.57,-0.75
17,1714733071022,4.81,6.42,4.10,-0.47,0.60,-0.92
17,1714733071056,3.89,6.41,3.88,-0.65,0.86,-1.08
17,1714733071089,3.15,6.29,4.47,-0.85,1.00,-1.13
17,1714733071121,3.64,5.68,4.45,-0.98,1.07,-1.26
17,1714733071153,3.13,5.64,3.88,-1.17,1.53,-1.45
17,1714733071186,1.04,4.80,5.83,-1.57,1.17,-1.55
17,1714733071219,1.27,3.49,5.08,-1.61,1.40,-1.68
17,1714733071251,-0.81,3.39,5.74,-1.80,1.75,-1.74
17,1714733071284,-0.60,1.79,6.19,-1.96,1.06,-1.78
17,1714733071316,-1.18,1.35,5.62,-2.04,1.96,-2.01
17,1714733071348,-5.19,1.37,8.62,-2.43,1.91,-1.95
17,1714733071380,-5.59,0.32,9.56,-2.65,1.10,-1.74
17,1714733071414,-5.76,0.48,10.11,-2.85,1.10,-1.61
17,1714733071446,-4.84,-0.71,11.77,-2.97,0.86,-1.52
17,1714733071478,-5.77,-1.74,10.17,-2.74,0.80,-1.46
17,1714733071511,-7.16,-2.13,11.69,-3.04,0.39,-1.15
17,1714733071544,-4.07,-4.30,12.04,-2.67,0.62,-1.11
17,1714733071577,-6.13,-4.03,11.87,-1.87,1.77,-0.93
17,1714733071608,-7.99,-4.19,14.66,-2.12,-0.41,-0.55
17,1714733071641,-2.58,-5.31,13.26,-1.31,-0.22,-0.58
17,1714733071674,-4.65,-4.41,10.79,-0.79,1.28,-0.49
17,1714733071707,-6.11,-4.69,12.19,-0.83,0.97,-0.39
17,1714733071741,-4.19,-5.32,11.65,-0.50,0.38,-0.42
17,1714733071775,-3.51,-5.06,9.14,-0.04,0.97,-0.50
17,1714733071808,-4.33,-4.45,6.76,0.02,1.43,-0.52
17,1714733071842,-5.70,-3.89,5.05,-0.42,1.17,-0.50
17,1714733071875,-0.69,-6.96,11.40,0.13,2.26,-0.72
17,1714733071908,-16.81,-3.56,11.22,0.53,1.85,0.51
17,1714733071940,-5.29,-3.57,4.11,0.28,0.67,-0.20
17,1714733071972,-8.12,-5.76,7.97,0.20,-0.47,0.21
17,1714733072004,-3.82,-4.82,6.43,0.21,0.23,0.03
17,1714733072038,-6.04,-4.48,6.58,0.19,0.07,-0.01
17,1714733072071,-5.81,-5.14,7.14,0.19,0.07,-0.02
17,1714733072104,-6.15,-4.91,6.92,0.21,0.02,-0.01
17,1714733072137,-5.42,-5.19,6.90,0.20,-0.00,0.02
17,1714733072170,-5.69,-4.75,6.71,0.22,0.12,0.02
18,1714733075210,-8.33,-4.81,13.34,2.24,-1.58,1.45
18,1714733075243,-7.33,-4.45,12.72,2.54,-2.02,1.53
18,1714733075277,-6.39,-3.77,12.20,2.81,-2.08,1.54
18,1714733075310,-6.56,-3.34,11.80,3.01,-2.30,1.51
18,1714733075343,-6.12,-2.97,10.85,3.33,-2.46,1.51
18,1714733075376,-4.85,-2.33,9.34,3.65,-2.18,1.55
18,1714733075410,-4.77,-1.33,8.22,3.69,-1.79,1.55
18,1714733075443,-4.53,-0.85,7.17,3.69,-1.70,1.69
18,1714733075475,-3.49,0.30,6.03,3.60,-1.80,1.78
18,1714733075507,-0.89,1.14,4.33,3.37,-1.84,1.70
18,1714733075540,0.40,1.99,3.34,3.13,-1.56,1.61
18,1714733075574,1.51,3.29,1.85,2.69,-1.30,1.50
18,1714733075608,2.80,4.15,1.18,2.16,-0.93,1.34
18,1714733075641,3.21,4.70,0.67,1.65,-0.47,1.13
18,1714733075674,3.58,5.31,0.39,1.05,-0.14,0.92
18,1714733075705,4.13,5.77,1.49,0.54,-0.17,0.75
18,1714733075738,5.33,6.53,2.83,0.26,0.07,0.51
18,1714733075771,5.26,7.34,4.53,0.11,0.12,0.32
18,1714733075803,5.09,7.65,5.99,0.10,-0.11,0.23
18,1714733075837,5.83,7.66,6.24,0.20,-0.21,0.07
18,1714733075870,5.87,7.79,5.43,0.28,0.33,-0.17
18,1714733075903,5.03,7.79,5.50,0.18,0.44,-0.36
18,1714733075935,4.55,7.55,5.46,0.03,0.05,-0.37
18,1714733075969,5.07,7.21,4.73,-0.13,0.22,-0.49
18,1714733076002,4.70,6.90,4.37,-0.26,0.54,-0.68
18,1714733076035,4.39,6.47,3.78,-0.44,0.63,-0.88
18,1714733076068,3.57,6.19,3.72,-0.74,0.64,-1.06
18,1714733076101,3.11,5.48,4.03,-0.95,0.85,-1.26
18,1714733076133,2.02,5.31,4.18,-1.11,1.35,-1.42
18,1714733076166,0.33,5.40,5.80,-1.39,1.16,-1.44
18,1714733076199,0.70,4.86,6.24,-1.58,0.94,-1.50
18,1714733076232,-0.08,4.21,6.31,-1.64,1.23,-1.53
18,1714733076265,-1.82,3.67,6.65,-1.81,1.38,-1.56
18,1714733076298,-2.35,2.72,7.61,-2.08,1.04,-1.55
18,1714733076330,-2.63,1.53,7.85,-2.11,1.03,-1.59
18,1714733076363,-4.60,1.27,7.34,-2.22,1.16,-1.43
18,1714733076395,-3.93,0.11,9.17,-2.59,0.43,-1.32
18,1714733076427,-2.24,-1.33,8.61,-2.32,1.00,-1.47
18,1714733076460,-5.84,-1.25,7.83,-2.33,1.58,-1.34
18,1714733076492,-6.17,-1.93,10.75,-2.87,0.31,-1.13
18,1714733076526,-3.37,-3.81,10.19,-2.50,0.84,-1.22
18,1714733076559,-6.63,-3.40,11.29,-2.25,1.51,-1.00
18,1714733076593,-6.81,-4.16,13.26,-2.43,0.27,-0.80
18,1714733076627,-3.74,-5.42,11.68,-1.68,0.65,-0.83
18,1714733076660,-6.15,-4.20,11.11,-1.29,1.37,-0.54
18,1714733076694,-5.64,-4.88,12.26,-1.47,0.34,-0.57
18,1714733076727,-3.91,-5.70,10.56,-0.91,0.68,-0.64
18,1714733076761,-5.64,-4.81,7.86,-0.62,1.51,-0.41
18,1714733076794,-7.28,-3.83,6.32,-1.07,1.41,-0.29
18,1714733076827,-19.61,-8.32,19.61,1.66,-3.36,1.03
18,1714733076860,2.17,-2.59,14.41,0.38,0.03,-0.63
18,1714733076893,-3.74,-4.02,5.64,0.56,1.40,0.27
18,1714733076927,-8.42,-5.06,8.26,0.46,0.13,0.02
18,1714733076960,-3.02,-5.11,7.38,0.08,-0.41,-0.08
18,1714733076993,-3.99,-4.45,7.49,0.25,0.33,-0.12
18,1714733077025,-6.51,-4.48,8.08,0.26,0.14,-0.04
18,1714733077058,-5.09,-5.22,7.86,0.23,-0.11,-0.02
18,1714733077091,-4.82,-4.88,7.58,0.27,0.05,0.03
18,1714733077124,-4.87,-4.58,7.47,0.30,0.14,0.04
18,1714733077158,-5.25,-4.38,7.67,0.27,0.06,-0.00
18,1714733077191,-4.94,-4.58,7.81,0.26,0.01,-0.02
18,1714733077224,-4.99,-4.74,7.75,0.26,0.06,-0.01
18,1714733077257,-5.28,-4.61,7.63,0.24,0.04,-0.00
18,1714733077289,-4.92,-4.49,7.76,0.20,-0.01,0.01
19,1714733080345,-7.30,-6.39,14.35,1.50,-0.68,0.60
19,1714733080378,-6.82,-6.27,13.99,1.85,-0.96,0.79
19,1714733080412,-6.53,-5.69,13.25,2.26,-0.98,0.91
19,1714733080445,-6.25,-4.59,12.41,2.41,-1.11,1.00
19,1714733080479,-5.80,-3.99,12.03,2.46,-1.31,1.07
19,1714733080512,-5.60,-3.60,11.26,2.57,-1.63,1.07
19,1714733080545,-4.49,-2.65,10.04,2.76,-1.47,1.04
19,1714733080579,-5.14,-1.69,10.22,2.69,-1.61,1.06
19,1714733080612,-4.76,-1.41,9.43,2.77,-1.67,1.08
19,1714733080645,-3.91,-0.43,8.26,2.81,-1.47,1.14
19,1714733080678,-4.29,0.18,7.90,2.68,-1.50,1.17
19,1714733080712,-2.51,0.79,7.26,2.66,-1.46,1.20
19,1714733080744,-2.00,1.25,6.84,2.60,-1.32,1.18
19,1714733080778,-1.76,1.92,6.89,2.47,-1.26,1.20
19,1714733080810,-0.44,2.35,6.50,2.39,-1.43,1.20
19,1714733080842,0.62,3.15,5.94,2.34,-1.20,1.11
19,1714733080875,0.01,3.52,6.01,2.18,-1.14,1.06
19,1714733080908,1.75,4.37,4.90,2.10,-1.10,1.08
19,1714733080941,1.92,5.18,4.31,1.84,-0.90,1.02
19,1714733080974,2.98,5.83,3.94,1.49,-1.03,0.96
19,1714733081008,4.27,6.15,3.63,1.28,-0.85,0.90
19,1714733081040,4.51,6.77,3.74,1.05,-0.44,0.73
19,1714733081073,4.87,7.10,3.21,0.80,-0.23,0.62
19,1714733081105,4.99,7.40,3.29,0.64,0.20,0.50
19,1714733081138,4.83,7.44,3.63,0.33,-0.02,0.44
19,1714733081170,5.88,7.34,3.88,0.20,0.16,0.30
19,1714733081202,6.29,7.09,4.07,0.10,0.29,0.07
19,1714733081236,6.03,6.96,4.11,0.01,0.38,-0.18
19,1714733081268,5.42,6.85,4.07,-0.13,0.36,-0.38
19,1714733081300,4.99,6.65,3.44,-0.33,0.62,-0.62
19,1714733081333,4.57,6.30,4.14,-0.60,0.78,-0.81
19,1714733081365,4.81,5.74,5.10,-0.76,0.90,-1.04
19,1714733081398,4.04,5.62,5.46,-0.73,1.15,-1.25
19,1714733081430,2.07,6.02,5.43,-0.86,1.36,-1.34
19,1714733081463,1.18,5.66,5.70,-1.15,1.15,-1.39
19,1714733081495,0.25,4.80,5.50,-1.29,1.23,-1.40
19,1714733081527,-1.28,4.44,5.69,-1.49,1.27,-1.31
19,1714733081560,-1.16,3.76,6.37,-1.81,1.22,-1.29
19,1714733081593,-1.23,2.50,7.09,-1.97,1.01,-1.29
19,1714733081626,-1.76,2.07,6.70,-2.05,1.38,-1.33
19,1714733081659,-3.04,1.49,8.91,-2.31,1.11,-1.28
19,1714733081692,-1.89,0.42,8.72,-2.20,0.95,-1.34
19,1714733081725,-3.59,-0.10,9.16,-2.15,1.35,-1.35
19,1714733081758,-3.88,-0.43,10.18,-2.27,1.02,-1.39
19,1714733081791,-4.19,-1.25,8.76,-2.13,1.00,-1.35
19,1714733081823,-4.98,-1.94,10.73,-2.34,0.80,-1.30
19,1714733081856,-3.74,-2.87,11.36,-2.19,0.75,-1.36
19,1714733081889,-5.39,-3.42,10.37,-1.93,0.99,-1.25
19,1714733081923,-5.79,-4.10,11.69,-1.92,0.90,-1.14
19,1714733081956,-4.95,-4.58,11.99,-1.52,1.53,-1.10
19,1714733081989,-6.94,-4.47,10.01,-1.07,2.36,-0.90
19,1714733082022,-8.65,-4.07,11.96,-1.27,1.23,-0.66
19,1714733082055,-5.96,-5.20,11.86,-1.10,0.33,-0.68
19,1714733082088,-4.75,-5.46,9.81,-0.51,0.87,-0.65
19,1714733082122,-7.06,-4.91,9.56,-0.50,0.72,-0.48
19,1714733082156,-5.81,-5.74,9.46,-0.68,-0.27,-0.52
19,1714733082189,-8.92,-6.79,17.30,0.23,-0.53,-0.31
19,1714733082220,-3.79,-5.64,10.94,0.56,0.56,-0.17
19,1714733082254,-5.27,-4.70,5.99,0.40,0.36,0.01
19,1714733082287,-5.99,-4.75,8.12,0.36,0.10,0.11
19,1714733082321,-4.12,-4.98,7.72,0.13,-0.10,0.03
19,1714733082354,-4.65,-4.81,7.17,0.13,0.16,-0.02
19,1714733082387,-5.77,-4.90,7.57,0.13,0.04,0.05
19,1714733082420,-4.62,-5.54,7.56,0.16,-0.07,0.02
20,1714733085482,-7.55,-6.27,13.70,1.51,-0.73,0.84
20,1714733085515,-7.52,-6.71,14.23,2.03,-1.03,1.05
20,1714733085548,-6.48,-6.01,13.16,2.72,-0.92,1.12
20,1714733085582,-6.46,-4.35,12.21,3.00,-0.58,1.24
20,1714733085615,-7.17,-3.46,12.00,3.01,-0.93,1.33
20,1714733085649,-6.91,-3.01,11.35,3.19,-1.50,1.50
20,1714733085682,-6.34,-1.96,10.52,3.30,-1.83,1.55
20,1714733085714,-5.09,-1.24,9.51,3.30,-1.90,1.54
20,1714733085747,-5.36,-0.48,8.90,3.27,-1.92,1.62
20,1714733085779,-4.34,0.16,8.25,3.22,-2.07,1.70
20,1714733085812,-2.74,0.76,6.94,3.17,-1.96,1.68
20,1714733085845,-2.75,1.95,6.79,2.95,-1.65,1.63
20,1714733085878,-1.79,2.32,6.22,2.77,-1.77,1.61
20,1714733085912,-0.61,2.59,5.10,2.62,-1.77,1.57
20,1714733085944,-0.85,3.20,5.43,2.37,-1.61,1.47
20,1714733085976,1.17,3.85,4.27,2.20,-1.72,1.43
20,1714733086009,2.08,4.57,3.85,2.04,-1.33,1.36
20,1714733086041,4.19,5.53,3.17,1.79,-1.04,1.23
20,1714733086075,4.53,6.10,2.94,1.50,-0.87,1.08
20,1714733086109,4.88,6.85,2.63,1.22,-0.71,0.95
20,1714733086142,5.54,6.90,2.53,0.87,-0.70,0.77
20,1714733086175,5.06,7.11,2.15,0.61,-0.23,0.56
20,1714733086208,3.16,7.37,3.17,0.30,-0.02,0.56
20,1714733086242,4.36,7.01,4.03,0.32,-0.19,0.72
20,1714733086275,6.33,6.87,4.50,0.33,-0.37,0.59
20,1714733086308,7.56,6.64,4.00,0.47,-0.04,0.30
20,1714733086341,6.80,7.13,3.83,0.51,0.01,0.05
20,1714733086374,7.25,7.32,2.26,0.42,-0.00,-0.10
20,1714733086406,6.73,7.54,2.06,0.16,0.21,-0.32
20,1714733086439,6.22,7.41,2.91,-0.12,0.22,-0.43
20,1714733086471,5.77,7.38,3.30,-0.24,0.24,-0.51
20,1714733086505,6.61,7.08,3.03,-0.32,0.32,-0.65
20,1714733086538,5.89,6.86,2.78,-0.54,0.48,-0.89
20,1714733086571,4.86,7.02,2.80,-0.71,0.68,-1.01
20,1714733086605,4.68,6.77,2.53,-0.92,0.88,-1.08
20,1714733086638,3.44,6.41,4.03,-1.19,0.87,-1.17
20,1714733086671,3.75,5.92,3.98,-1.31,1.09,-1.30
20,1714733086704,2.54,5.72,4.10,-1.39,1.75,-1.35
20,1714733086737,1.56,5.29,5.21,-1.74,1.48,-1.42
20,1714733086770,1.35,4.53,6.00,-1.91,1.67,-1.56
20,1714733086803,-0.15,4.11,6.46,-1.95,2.02,-1.58
20,1714733086836,-2.17,3.13,8.24,-2.05,1.66,-1.53
20,1714733086869,-2.34,2.49,8.75,-2.14,1.36,-1.55
20,1714733086901,-3.22,1.99,9.14,-2.08,1.40,-1.35
20,1714733086934,-3.33,0.91,10.13,-2.08,0.85,-1.28
20,1714733086967,-3.67,0.31,8.94,-2.03,1.03,-1.26
20,1714733087000,-4.28,0.40,10.46,-2.08,0.85,-1.04
20,1714733087033,-2.75,-0.65,10.47,-1.99,0.44,-1.05
20,1714733087066,-4.03,-1.17,9.10,-1.96,1.00,-1.10
20,1714733087098,-5.11,-1.52,10.90,-2.07,0.77,-0.92
20,1714733087130,-3.63,-2.23,11.11,-1.84,0.36,-0.87
20,1714733087163,-4.47,-2.20,9.31,-1.86,0.85,-0.93
20,1714733087197,-5.73,-3.05,11.43,-2.12,0.51,-0.79
20,1714733087230,-3.90,-4.36,12.46,-1.62,0.30,-0.69
20,1714733087262,-4.03,-3.83,9.80,-1.20,1.13,-0.72
20,1714733087295,-7.55,-3.18,10.11,-1.49,1.03,-0.41
20,1714733087329,-5.76,-5.12,11.31,-1.50,0.00,-0.33
20,1714733087362,-3.84,-5.19,10.24,-1.03,0.36,-0.33
20,1714733087395,-3.47,-5.30,10.99,-0.80,0.78,-0.32
20,1714733087427,-3.47,-5.43,10.25,-0.39,0.83,-0.43
20,1714733087461,-3.82,-5.09,7.60,-0.22,0.76,-0.56
20,1714733087494,-6.27,-5.90,14.38,0.01,0.82,-0.62
20,1714733087527,-3.99,-5.19,13.51,0.51,0.36,-0.22
20,1714733087561,-3.88,-3.71,6.30,0.36,0.48,0.00
21,1714733090615,-4.75,-5.10,7.95,0.04,-0.00,-0.05
21,1714733090648,-4.90,-5.13,7.59,0.05,0.00,-0.06
21,1714733090681,-4.70,-5.14,8.78,-0.07,-0.27,-0.01
21,1714733090714,-5.00,-5.85,8.69,0.08,-0.13,0.01
21,1714733090748,-6.74,-6.22,10.14,0.50,-0.04,0.18
21,1714733090781,-6.90,-6.15,11.79,0.87,-0.37,0.45
21,1714733090814,-5.48,-6.02,11.97,1.31,-0.75,0.54
21,1714733090848,-4.64,-5.67,11.46,1.58,-0.47,0.53
21,1714733090881,-5.30,-4.91,11.61,1.99,-0.13,0.57
21,1714733090914,-6.00,-4.17,11.19,2.06,-0.35,0.67
21,1714733090947,-5.59,-3.61,10.72,2.15,-0.53,0.75
21,1714733090980,-5.36,-2.94,10.15,2.13,-0.69,0.82
21,1714733091013,-5.40,-2.35,10.25,2.17,-0.70,0.87
21,1714733091046,-5.54,-1.87,10.43,2.15,-0.97,0.92
21,1714733091078,-5.18,-1.33,10.63,2.19,-1.17,0.96
21,1714733091111,-4.89,-0.83,11.12,2.23,-1.19,1.00
21,1714733091144,-4.99,-0.69,11.07,2.40,-1.35,1.04
21,1714733091177,-4.21,0.08,9.94,2.59,-1.21,1.08
21,1714733091210,-4.47,0.72,9.68,2.58,-1.17,1.15
21,1714733091243,-3.58,1.24,8.51,2.63,-1.24,1.24
21,1714733091276,-2.84,2.13,7.75,2.55,-1.22,1.29
21,1714733091309,-2.19,2.48,7.41,2.47,-1.21,1.30
21,1714733091342,-1.47,3.05,7.02,2.38,-1.21,1.35
21,1714733091375,-0.95,3.69,6.91,2.26,-1.07,1.36
21,1714733091409,-0.25,4.13,6.49,2.10,-1.35,1.38
21,1714733091442,0.17,4.26,6.24,2.03,-1.34,1.37
21,1714733091475,0.50,4.74,5.73,1.90,-1.19,1.40
21,1714733091508,1.66,5.11,4.62,1.87,-0.80,1.45
21,1714733091540,2.60,5.64,4.16,1.63,-0.76,1.44
21,1714733091573,4.17,5.91,3.54,1.36,-0.78,1.32
21,1714733091606,4.96,6.54,3.39,1.15,-0.74,1.17
21,1714733091639,6.62,6.79,2.91,1.03,-0.60,0.90
21,1714733091672,6.16,7.14,2.61,0.86,-0.46,0.61
21,1714733091705,7.25,7.47,1.71,0.60,-0.22,0.33
21,1714733091739,7.50,7.52,1.19,0.27,-0.02,0.04
21,1714733091772,7.57,7.33,0.84,-0.06,0.28,-0.32
21,1714733091805,6.41,7.06,1.23,-0.48,0.46,-0.62
21,1714733091838,6.58,6.73,1.13,-0.81,0.59,-0.87
21,1714733091871,5.45,6.20,2.26,-1.11,0.85,-1.16
21,1714733091904,4.71,5.73,2.93,-1.36,1.03,-1.40
21,1714733091937,2.68,5.37,4.36,-1.53,1.37,-1.56
21,1714733091970,2.10,4.92,5.59,-1.67,1.54,-1.66
21,1714733092002,0.60,4.45,6.07,-1.73,1.75,-1.68
21,1714733092036,-0.65,4.06,6.89,-1.98,1.65,-1.68
21,1714733092069,-0.99,2.73,7.47,-2.04,1.41,-1.70
21,1714733092102,-1.93,2.16,7.88,-2.03,1.64,-1.65
21,1714733092135,-3.56,1.75,9.16,-2.11,1.60,-1.59
21,1714733092168,-3.66,0.79,10.06,-2.10,0.90,-1.47
21,1714733092201,-3.58,0.50,9.62,-2.01,1.15,-1.42
21,1714733092234,-4.59,-0.22,11.57,-2.03,0.79,-1.31
21,1714733092266,-3.04,-0.50,10.60,-1.73,0.86,-1.30
21,1714733092300,-4.49,0.17,8.75,-1.76,1.40,-1.27
21,1714733092332,-5.51,-0.48,10.32,-2.18,0.69,-1.21
21,1714733092365,-4.62,-1.92,9.33,-2.02,0.72,-1.14
21,1714733092398,-6.25,-1.88,10.20,-2.07,0.92,-0.94
21,1714733092431,-4.87,-3.18,11.56,-2.10,0.63,-0.94
21,1714733092464,-4.46,-3.94,9.90,-1.51,1.10,-0.89
21,1714733092497,-5.87,-3.70,9.25,-1.40,1.84,-0.84
21,1714733092530,-7.00,-4.10,11.63,-1.48,0.73,-0.79
21,1714733092563,-4.94,-5.11,10.35,-0.98,0.58,-0.78
21,1714733092597,-6.69,-4.36,9.31,-0.76,1.38,-0.56
21,1714733092630,-8.06,-4.73,10.96,-1.08,-0.01,-0.35
21,1714733092664,-3.75,-5.76,9.45,-0.73,-0.46,-0.51
21,1714733092695,-3.74,-5.37,7.48,-0.43,0.25,-0.48
22,1714733095734,-5.09,-4.78,7.42,0.07,-0.06,-0.01
22,1714733095767,-4.95,-4.89,7.44,0.07,-0.12,-0.03
22,1714733095800,-4.81,-5.00,7.46,0.13,-0.02,-0.06
22,1714733095834,-4.87,-4.93,7.67,0.12,-0.04,-0.07
22,1714733095867,-4.86,-4.90,7.29,0.13,0.03,-0.05
22,1714733095900,-5.10,-4.92,8.02,0.12,-0.01,-0.06
22,1714733095933,-4.70,-5.07,8.45,0.10,-0.03,-0.09
22,1714733095965,-5.24,-5.59,9.35,0.24,0.04,0.03
22,1714733095998,-5.68,-5.79,10.13,0.55,0.09,0.06
22,1714733096030,-6.77,-6.04,11.21,0.97,-0.08,0.18
22,1714733096065,-7.34,-5.75,11.42,1.30,-0.32,0.47
22,1714733096097,-6.56,-5.50,11.51,1.62,-0.33,0.61
22,1714733096130,-6.45,-5.01,11.33,1.94,-0.27,0.75
22,1714733096164,-6.35,-3.99,10.89,2.13,-0.33,0.85
22,1714733096198,-6.98,-3.57,10.78,2.14,-0.57,1.03
22,1714733096231,-6.71,-2.92,10.74,2.21,-0.93,1.19
22,1714733096264,-5.92,-2.64,10.40,2.23,-1.21,1.23
22,1714733096298,-5.68,-1.92,10.68,2.40,-1.24,1.27
22,1714733096331,-5.27,-1.35,10.18,2.48,-1.28,1.30
22,1714733096364,-4.92,-0.32,9.65,2.50,-1.24,1.28
22,1714733096397,-4.14,0.10,9.16,2.45,-1.24,1.28
22,1714733096430,-3.87,0.56,8.90,2.45,-1.30,1.32
22,1714733096462,-3.47,1.45,8.73,2.41,-1.36,1.34
22,1714733096495,-2.77,1.98,8.32,2.30,-1.35,1.33
22,1714733096528,-2.11,2.54,8.00,2.26,-1.32,1.32
22,1714733096561,-1.19,2.99,7.23,2.21,-1.22,1.29
22,1714733096594,-0.82,3.77,6.70,2.03,-1.03,1.22
22,1714733096628,-0.31,4.29,6.32,1.85,-0.94,1.18
22,1714733096660,-0.77,4.91,6.52,1.52,-1.47,1.21
22,1714733096693,1.11,5.02,6.53,1.30,-1.63,1.17
22,1714733096725,2.33,5.20,6.70,1.36,-1.10,1.10
22,1714733096757,1.47,5.75,7.01,1.37,-1.23,1.09
22,1714733096790,2.88,5.93,6.04,1.25,-1.73,1.06
22,1714733096823,5.31,5.79,4.52,1.32,-1.04,0.88
22,1714733096856,4.13,6.25,4.26,1.30,-0.19,0.62
22,1714733096890,3.75,7.01,3.73,1.02,-0.37,0.50
22,1714733096922,4.31,6.74,3.19,0.78,-0.63,0.45
22,1714733096955,5.04,7.08,2.83,0.66,-0.29,0.35
22,1714733096988,5.37,7.27,2.13,0.45,-0.00,0.21
22,1714733097021,5.70,7.29,2.13,0.20,0.09,0.08
22,1714733097053,6.78,7.17,1.68,-0.05,0.28,-0.17
22,1714733097086,6.10,7.19,1.87,-0.38,0.68,-0.55
22,1714733097120,4.91,6.98,2.58,-0.71,0.80,-0.78
22,1714733097153,4.23,6.64,3.11,-0.92,1.02,-0.89
22,1714733097186,4.30,6.07,3.61,-1.17,1.19,-1.04
22,1714733097219,3.58,5.38,3.68,-1.35,1.63,-1.26
22,1714733097252,1.93,5.09,5.04,-1.68,1.52,-1.40
22,1714733097285,1.87,4.18,5.51,-1.88,1.37,-1.55
22,1714733097318,-0.19,3.83,6.26,-1.97,1.90,-1.55
22,1714733097350,-1.57,3.62,7.49,-2.30,1.38,-1.48
22,1714733097382,-1.05,2.25,7.21,-2.40,1.35,-1.52
22,1714733097416,-2.72,1.23,9.24,-2.53,1.36,-1.49
22,1714733097449,-3.17,-0.01,10.14,-2.45,0.99,-1.43
22,1714733097483,-3.76,-0.48,11.80,-2.35,0.98,-1.36
22,1714733097516,-3.62,-0.97,11.61,-1.93,1.04,-1.27
22,1714733097548,-5.33,-0.59,9.79,-1.96,0.95,-1.09
22,1714733097581,-4.23,-1.72,11.50,-2.17,0.36,-0.96
22,1714733097614,-3.71,-2.28,10.96,-1.85,0.61,-0.94
22,1714733097647,-4.75,-2.37,10.84,-1.93,0.44,-0.82
22,1714733097681,-2.91,-3.58,11.89,-1.76,0.15,-0.82
22,1714733097714,-2.83,-3.94,10.31,-1.33,1.06,-0.84
22,1714733097747,-6.04,-3.67,11.09,-1.29,0.89,-0.66
22,1714733097780,-4.02,-4.75,11.77,-1.33,-0.19,-0.63
22,1714733097812,-2.74,-5.01,10.73,-0.89,0.62,-0.61
23,1714733100857,-4.14,-6.74,8.79,-0.06,-0.30,0.04
23,1714733100890,-4.38,-7.18,10.92,0.30,-0.32,0.07
23,1714733100924,-5.23,-7.96,12.86,0.90,-0.60,0.19
23,1714733100956,-4.47,-7.66,12.78,1.40,-0.41,0.31
23,1714733100989,-5.04,-7.15,13.23,1.82,0.08,0.35
23,1714733101022,-7.06,-7.20,14.27,2.11,-0.30,0.58
23,1714733101055,-6.71,-6.90,13.53,2.56,-0.78,0.76
23,1714733101088,-6.65,-5.65,12.51,2.79,-0.82,0.91
23,1714733101121,-7.22,-5.65,12.70,2.97,-1.29,1.06
23,1714733101155,-5.12,-4.64,10.72,3.32,-1.57,1.08
23,1714733101188,-5.00,-3.11,9.89,3.33,-1.33,1.08
23,1714733101221,-5.11,-2.45,9.64,3.32,-1.67,1.12
23,1714733101254,-4.41,-1.40,8.68,3.30,-2.00,1.12
23,1714733101288,-2.91,-0.72,7.79,3.29,-1.74,1.10
23,1714733101321,-3.59,-0.17,7.76,3.21,-1.45,1.16
23,1714733101355,-2.46,0.50,6.75,3.23,-1.51,1.26
23,1714733101388,-1.70,1.39,6.51,3.03,-1.66,1.33
23,1714733101421,-0.17,1.55,5.78,2.89,-1.67,1.31
23,1714733101454,-0.09,2.48,5.51,2.76,-1.39,1.30
23,1714733101487,1.62,3.53,4.83,2.61,-1.31,1.30
23,1714733101520,2.37,4.13,3.63,2.36,-1.10,1.21
23,1714733101552,2.87,5.05,2.92,2.01,-0.84,1.14
23,1714733101585,3.17,5.70,2.78,1.60,-0.92,1.10
23,1714733101617,4.24,6.17,2.28,1.26,-1.15,1.06
23,1714733101650,5.07,6.85,2.22,1.04,-0.79,0.95
23,1714733101682,5.23,7.01,2.72,0.79,-0.56,0.84
23,1714733101715,6.26,7.07,2.86,0.75,-0.36,0.74
23,1714733101748,6.52,7.36,2.22,0.65,-0.36,0.57
23,1714733101781,7.06,7.47,1.70,0.48,-0.16,0.38
23,1714733101813,7.67,7.31,1.27,0.30,0.21,0.15
23,1714733101847,7.34,7.19,1.64,0.09,0.33,-0.07
23,1714733101880,7.49,6.78,2.13,-0.11,0.41,-0.31
23,1714733101914,6.86,6.54,2.71,-0.30,0.44,-0.58
23,1714733101947,6.21,6.43,2.95,-0.39,0.63,-0.84
23,1714733101980,5.12,6.35,3.12,-0.52,0.75,-0.98
23,1714733102012,4.74,6.40,3.11,-0.70,0.98,-1.09
23,1714733102046,4.14,6.39,3.24,-0.88,1.24,-1.17
23,1714733102080,3.42,5.74,4.06,-1.12,1.42,-1.25
23,1714733102112,2.49,5.30,4.64,-1.36,1.36,-1.36
23,1714733102146,1.24,5.21,4.73,-1.53,1.55,-1.37
23,1714733102180,0.10,4.59,6.10,-1.73,1.52,-1.33
23,1714733102213,-0.38,3.74,6.36,-1.83,1.54,-1.35
23,1714733102245,-1.81,3.13,6.49,-1.98,1.53,-1.24
23,1714733102278,-1.36,2.54,8.26,-2.32,1.37,-1.25
23,1714733102311,-1.42,1.53,7.80,-2.23,1.44,-1.31
23,1714733102344,-3.00,1.61,8.51,-2.39,1.17,-1.17
23,1714733102377,-1.74,0.23,9.93,-2.57,0.93,-1.28
23,1714733102410,-2.20,-0.45,8.27,-2.23,1.60,-1.36
23,1714733102443,-5.68,0.03,9.90,-2.62,0.93,-1.20
23,1714733102475,-3.45,-1.65,10.79,-2.85,0.38,-1.17
23,1714733102507,-3.31,-2.77,10.77,-2.54,0.95,-1.14
23,1714733102541,-4.38,-2.97,12.78,-2.51,0.50,-1.08
23,1714733102574,-4.24,-4.68,12.58,-2.31,0.21,-1.11
23,1714733102607,-4.92,-5.13,12.51,-1.82,0.72,-0.82
23,1714733102641,-4.73,-5.03,13.14,-1.60,0.60,-0.64
23,1714733102673,-3.81,-5.86,12.28,-1.12,0.58,-0.65
23,1714733102706,-3.76,-5.30,12.30,-0.80,1.02,-0.44
23,1714733102739,-5.20,-5.66,12.45,-0.59,0.85,-0.38
23,1714733102771,-4.92,-5.50,10.62,-0.44,0.44,-0.31
23,1714733102805,-4.78,-5.10,9.28,-0.36,0.41,-0.18
23,1714733102838,-3.58,-5.50,8.49,-0.46,0.46,-0.19
23,1714733102871,-3.60,-5.51,7.53,-0.40,0.60,-0.30
23,1714733102904,0.73,-7.83,10.69,0.59,2.28,-0.59
23,1714733102936,-7.09,-5.71,10.92,1.09,4.19,-0.01
24,1714733105983,-5.26,-6.34,11.60,1.28,-0.07,0.57
24,1714733106017,-6.18,-5.68,11.71,1.62,-0.39,0.64
24,1714733106050,-5.39,-4.74,11.02,1.68,-0.67,0.67
24,1714733106083,-5.18,-4.10,10.81,1.64,-0.65,0.69
24,1714733106117,-5.77,-3.95,10.89,1.69,-0.82,0.71
24,1714733106150,-6.12,-3.50,11.01,1.82,-1.20,0.79
24,1714733106183,-5.20,-2.86,10.64,1.88,-1.20,0.87
24,1714733106216,-4.68,-2.25,10.43,1.91,-1.14,0.87
24,1714733106249,-4.45,-2.15,9.77,2.02,-1.08,0.89
24,1714733106282,-4.31,-1.03,9.73,2.03,-1.14,0.88
24,1714733106315,-4.61,-0.94,10.47,1.96,-1.33,0.89
24,1714733106349,-3.42,-0.60,10.25,2.14,-1.31,0.92
24,1714733106382,-3.28,0.13,9.79,2.27,-1.15,1.00
24,1714733106415,-2.67,0.59,8.86,2.16,-1.13,1.00
24,1714733106447,-2.60,0.43,8.87,2.25,-1.12,0.97
24,1714733106479,-1.61,1.43,8.32,2.34,-1.03,1.00
24,1714733106513,-1.22,2.14,8.00,2.20,-0.92,1.00
24,1714733106546,-1.45,2.19,8.02,2.20,-1.01,1.01
24,1714733106578,-0.32,2.71,7.63,2.20,-1.09,1.05
24,1714733106612,0.71,3.29,7.03,2.17,-0.92,0.97
24,1714733106644,1.13,4.07,6.37,2.09,-0.61,0.89
24,1714733106676,1.05,4.61,6.20,1.93,-0.66,0.88
24,1714733106709,1.34,5.13,5.87,1.70,-0.90,0.84
24,1714733106742,2.24,5.67,5.56,1.49,-1.03,0.81
24,1714733106774,2.73,6.18,5.34,1.35,-0.80,0.78
24,1714733106808,2.69,6.53,5.48,1.16,-0.92,0.78
24,1714733106841,3.60,6.91,5.03,1.03,-0.92,0.75
24,1714733106873,3.84,7.24,5.30,0.95,-0.75,0.70
24,1714733106905,3.74,7.37,5.11,0.81,-1.09,0.70
24,1714733106938,5.31,7.11,4.43,0.82,-0.93,0.60
24,1714733106971,5.60,7.23,3.88,0.75,-0.50,0.44
24,1714733107004,5.58,7.25,3.55,0.64,-0.17,0.30
24,1714733107038,5.84,7.24,3.23,0.47,-0.30,0.24
24,1714733107071,6.95,7.51,3.60,0.29,-0.31,0.04
24,1714733107103,7.24,7.38,3.25,0.20,0.01,-0.24
24,1714733107135,5.68,7.49,3.58,0.08,0.18,-0.36
24,1714733107169,5.62,7.15,3.92,-0.06,0.01,-0.44
24,1714733107202,5.25,7.40,3.31,-0.13,0.30,-0.55
24,1714733107234,4.28,7.22,3.15,-0.26,0.58,-0.60
24,1714733107267,4.30,7.18,3.41,-0.44,0.58,-0.66
24,1714733107300,4.35,6.74,3.31,-0.56,0.85,-0.80
24,1714733107332,3.12,6.64,3.67,-0.73,1.04,-0.88
24,1714733107365,2.95,6.39,3.68,-0.98,1.04,-0.96
24,1714733107397,2.07,6.07,4.52,-1.17,1.25,-0.99
24,1714733107429,1.98,5.35,5.04,-1.39,1.15,-1.08
24,1714733107461,0.90,5.12,5.31,-1.50,1.32,-1.15
24,1714733107495,0.40,5.02,5.91,-1.74,1.31,-1.18
24,1714733107528,-0.63,4.04,6.16,-1.86,1.48,-1.18
24,1714733107561,-1.07,3.00,7.32,-1.99,1.32,-1.20
24,1714733107595,-1.54,2.87,6.88,-2.06,1.50,-1.28
24,1714733107628,-2.54,1.99,8.56,-2.27,1.24,-1.19
24,1714733107661,-1.47,0.99,8.84,-2.24,1.23,-1.32
24,1714733107694,-3.40,0.68,8.21,-2.26,1.78,-1.35
24,1714733107727,-5.61,-0.05,10.78,-2.70,0.82,-1.19
24,1714733107760,-2.41,-2.06,10.22,-2.36,0.79,-1.22
24,1714733107792,-4.87,-1.47,10.38,-2.23,1.35,-1.13
24,1714733107827,-5.62,-2.55,11.85,-2.58,0.27,-1.04
24,1714733107860,-4.00,-3.97,11.37,-2.18,0.65,-0.97
24,1714733107892,-5.66,-3.88,13.02,-1.99,0.96,-0.73
24,1714733107925,-4.12,-5.01,13.69,-1.74,0.46,-0.78
24,1714733107959,-3.58,-4.95,11.26,-1.12,1.17,-0.81
24,1714733107992,-6.74,-4.07,11.03,-1.03,1.59,-0.54
24,1714733108024,-6.85,-5.17,11.91,-1.32,0.13,-0.42
24,1714733108056,-3.80,-5.67,10.65,-1.00,0.06,-0.48
25,1714733111100,-5.59,-4.55,7.31,0.16,-0.02,-0.04
25,1714733111133,-5.17,-4.62,7.72,0.03,-0.04,-0.07
25,1714733111166,-5.51,-4.60,7.70,-0.10,-0.01,-0.13
25,1714733111199,-6.69,-4.81,8.25,-0.31,-0.43,-0.07
25,1714733111232,-5.87,-5.40,8.60,-0.40,-0.74,-0.04
25,1714733111265,-7.35,-5.80,9.40,-0.02,-0.74,0.19
25,1714733111297,-7.82,-6.17,10.87,0.32,-1.39,0.40
25,1714733111331,-5.49,-6.69,11.73,0.85,-1.07,0.51
25,1714733111365,-6.01,-6.39,12.50,1.28,-0.41,0.58
25,1714733111398,-7.19,-6.15,13.02,1.70,-0.53,0.76
25,1714733111431,-7.34,-5.62,12.97,1.91,-1.06,0.95
25,1714733111464,-5.90,-5.06,12.14,2.12,-1.30,1.02
25,1714733111497,-6.14,-4.74,12.21,2.34,-1.40,1.06
25,1714733111531,-5.35,-3.95,11.49,2.57,-1.54,1.07
25,1714733111563,-5.01,-2.90,10.96,2.75,-1.45,1.04
25,1714733111596,-4.60,-2.37,10.38,2.85,-1.57,1.03
25,1714733111628,-3.87,-1.24,9.01,2.87,-1.56,1.05
25,1714733111662,-3.62,-0.50,8.70,2.77,-1.49,1.06
25,1714733111695,-2.99,-0.17,7.86,2.70,-1.63,1.01
25,1714733111728,-1.96,0.93,7.52,2.63,-1.43,1.02
25,1714733111761,-1.87,1.37,7.13,2.50,-1.27,0.98
25,1714733111793,-1.31,2.07,6.86,2.41,-1.21,0.97
25,1714733111826,-1.04,2.85,7.03,2.27,-1.26,1.02
25,1714733111859,0.32,3.33,6.79,2.14,-1.35,0.99
25,1714733111893,0.40,3.74,6.94,2.11,-1.32,0.96
25,1714733111926,1.25,4.18,6.63,2.06,-1.34,0.90
25,1714733111960,2.01,4.51,6.07,2.05,-1.15,0.80
25,1714733111993,2.33,4.87,4.90,1.97,-0.87,0.76
25,1714733112026,2.79,5.63,4.07,1.88,-0.74,0.77
25,1714733112060,2.36,6.19,3.48,1.60,-0.68,0.73
25,1714733112093,3.41,6.82,3.07,1.32,-0.51,0.73
25,1714733112127,3.51,6.97,2.91,1.13,-0.37,0.68
25,1714733112160,4.08,7.34,2.88,0.92,-0.53,0.68
25,1714733112192,5.46,7.48,2.13,0.78,-0.48,0.59
25,1714733112225,6.36,7.62,1.56,0.70,-0.02,0.39
25,1714733112259,6.24,7.81,1.30,0.46,0.23,0.18
25,1714733112292,6.05,7.82,1.10,0.08,0.13,0.04
25,1714733112325,6.80,7.24,1.00,-0.30,0.07,-0.20
25,1714733112358,6.76,6.81,0.76,-0.52,0.61,-0.52
25,1714733112392,5.31,6.74,1.74,-0.82,0.92,-0.79
25,1714733112425,4.80,6.12,2.83,-1.16,0.58,-0.97
25,1714733112458,5.67,5.53,2.09,-1.32,0.98,-1.22
25,1714733112490,3.54,5.13,3.93,-1.57,1.52,-1.46
25,1714733112524,2.40,4.19,4.07,-1.83,1.34,-1.66
25,1714733112557,1.05,4.09,3.31,-2.04,1.99,-1.69
25,1714733112590,-2.85,3.43,6.57,-2.62,1.65,-1.68
25,1714733112623,-2.70,1.64,7.02,-3.02,0.84,-1.53
25,1714733112656,-2.75,1.34,8.02,-3.04,1.37,-1.33
25,1714733112689,-3.30,-0.81,8.95,-3.09,2.31,-1.33
25,1714733112722,-5.53,-1.05,8.83,-2.89,2.66,-1.08
25,1714733112754,-4.92,-0.44,10.79,-2.97,0.96,-0.91
25,1714733112787,-1.95,-2.09,10.18,-2.74,0.87,-1.06
25,1714733112819,-3.64,-2.54,10.07,-2.57,1.48,-1.06
25,1714733112852,-3.69,-3.08,11.43,-2.73,0.70,-1.11
25,1714733112885,-3.21,-4.34,10.05,-2.31,1.23,-1.22
25,1714733112918,-6.46,-5.00,11.80,-2.32,2.00,-0.90
25,1714733112951,-6.27,-6.06,13.53,-2.22,1.09,-0.80
25,1714733112983,-4.19,-6.15,10.80,-1.53,1.52,-1.08
25,1714733113016,-9.12,-5.43,11.18,-1.28,1.85,-0.57
25,1714733113049,-7.57,-6.66,12.79,-1.24,0.39,-0.44
25,1714733113081,-4.52,-6.55,10.95,-0.52,0.45,-0.62
25,1714733113115,-5.53,-5.80,8.57,-0.06,0.76,-0.36
25,1714733113146,-5.80,-4.90,6.93,-0.32,0.00,-0.44
25,1714733113179,-10.91,-8.88,19.61,1.42,-1.11,-0.22
26,1714733116230,-5.12,-4.61,7.56,0.21,0.07,-0.06
26,1714733116263,-5.20,-4.53,7.59,0.19,0.04,-0.06
26,1714733116297,-5.26,-4.64,7.57,0.14,0.04,-0.04
26,1714733116330,-5.12,-4.79,7.53,0.05,-0.02,-0.04
26,1714733116363,-4.48,-5.43,8.36,0.22,0.32,0.01
26,1714733116396,-6.47,-5.23,8.71,0.28,0.20,0.02
26,1714733116430,-6.72,-4.69,10.45,0.07,-0.09,0.08
26,1714733116463,-7.65,-5.97,11.79,0.42,-0.55,0.27
26,1714733116494,-7.32,-5.64,13.58,0.93,-1.18,0.47
26,1714733116527,-6.49,-5.71,13.11,1.41,-0.71,0.64
26,1714733116560,-6.59,-5.18,12.71,1.84,-0.28,0.75
26,1714733116593,-7.75,-4.27,12.22,2.03,-0.53,0.90
26,1714733116627,-7.38,-3.86,12.60,2.01,-1.21,1.02
26,1714733116660,-6.53,-3.87,12.20,2.24,-1.34,1.13
26,1714733116692,-6.82,-3.29,11.67,2.45,-1.41,1.18
26,1714733116725,-6.63,-2.96,11.50,2.65,-1.53,1.25
26,1714733116757,-6.93,-2.48,10.94,2.78,-1.70,1.36
26,1714733116790,-6.35,-2.23,10.56,2.94,-2.11,1.49
26,1714733116823,-4.05,-1.94,8.55,3.26,-1.92,1.47
26,1714733116856,-3.65,-0.74,7.85,3.30,-1.53,1.44
26,1714733116889,-3.24,-0.08,7.13,3.29,-1.37,1.46
26,1714733116923,-2.29,0.84,6.39,3.19,-1.42,1.55
26,1714733116954,-1.85,1.46,6.06,3.07,-1.39,1.52
26,1714733116987,-1.58,2.32,5.99,2.89,-1.55,1.59
26,1714733117020,-0.26,3.03,5.19,2.74,-1.79,1.64
26,1714733117053,0.49,3.59,4.47,2.59,-1.65,1.54
26,1714733117087,1.92,4.60,3.72,2.44,-1.37,1.46
26,1714733117119,3.32,5.10,2.47,2.27,-1.36,1.43
26,1714733117151,5.43,5.58,0.51,1.97,-1.15,1.22
26,1714733117184,6.11,6.70,-0.47,1.58,-0.38,0.95
26,1714733117217,6.34,7.04,-0.92,0.91,-0.40,0.75
26,1714733117250,7.36,6.90,-0.91,0.39,-0.30,0.42
26,1714733117284,7.54,7.12,-1.09,0.01,0.25,0.02
26,1714733117317,6.72,6.93,0.34,-0.44,0.53,-0.32
26,1714733117350,6.71,6.58,1.23,-0.75,0.45,-0.61
26,1714733117383,6.05,6.71,1.38,-0.94,0.77,-0.91
26,1714733117415,5.02,6.39,2.64,-1.24,0.90,-1.14
26,1714733117447,4.82,5.66,2.67,-1.47,1.08,-1.38
26,1714733117480,3.48,5.03,4.31,-1.66,1.49,-1.56
26,1714733117513,2.76,4.53,5.53,-1.88,1.39,-1.74
26,1714733117546,0.99,3.79,4.75,-1.88,2.04,-1.86
26,1714733117579,-1.61,3.75,6.94,-2.26,1.65,-1.79
26,1714733117612,-1.23,2.94,7.15,-2.50,1.28,-1.81
26,1714733117645,-2.31,1.86,8.20,-2.60,1.32,-1.63
26,1714733117678,-2.13,0.88,10.31,-2.57,1.16,-1.66
26,1714733117711,-3.98,0.81,8.37,-2.56,1.21,-1.61
26,1714733117744,-3.94,-0.57,9.44,-2.62,0.84,-1.39
26,1714733117778,-4.25,-1.47,10.36,-2.34,1.46,-1.43
26,1714733117811,-7.04,-0.50,9.78,-2.46,1.69,-1.17
26,1714733117845,-6.27,-1.84,11.15,-2.54,0.70,-0.93
26,1714733117878,-1.79,-4.15,5.28,-1.12,0.74,-0.29
26,1714733117911,-1.82,-3.00,9.03,-1.89,2.16,-0.86
26,1714733117944,-9.41,-2.76,11.97,-2.32,1.25,-0.64
26,1714733117977,-6.62,-5.96,12.89,-1.82,-1.13,-0.66
26,1714733118010,-3.79,-4.10,11.48,-1.38,-0.27,-0.47
26,1714733118042,-3.97,-4.94,12.64,-1.16,0.71,-0.30
26,1714733118075,-4.83,-4.85,12.35,-0.82,0.69,-0.32
26,1714733118108,-4.52,-4.41,10.19,-0.68,0.61,-0.33
26,1714733118140,-4.12,-4.42,10.21,-0.73,0.70,-0.33
26,1714733118173,-4.60,-4.73,9.44,-0.64,0.79,-0.32
26,1714733118206,-5.15,-4.87,7.99,-0.53,0.55,-0.38
26,1714733118239,-5.02,-9.69,19.61,1.63,1.27,-0.18
26,1714733118272,-3.59,-3.80,7.85,0.30,0.58,-0.16
26,1714733118304,-7.44,-3.79,6.82,0.25,0.41,0.19
27,1714733121341,-5.17,-4.77,7.56,0.21,0.00,-0.06
27,1714733121375,-5.14,-4.62,7.74,0.17,-0.02,-0.06
27,1714733121408,-4.81,-4.58,7.67,0.13,0.01,-0.07
27,1714733121441,-4.97,-4.58,8.43,0.10,0.12,-0.07
27,1714733121474,-5.88,-4.75,7.84,0.16,0.14,-0.03
27,1714733121508,-6.78,-5.01,8.60,0.15,-0.14,0.14
27,1714733121541,-7.48,-5.37,10.49,0.19,-0.73,0.35
27,1714733121574,-8.89,-6.02,12.42,0.73,-1.38,0.54
27,1714733121607,-6.96,-6.08,13.02,1.19,-1.54,0.79
27,1714733121640,-6.92,-5.57,13.71,1.81,-0.82,0.99
27,1714733121672,-6.90,-4.93,13.56,2.20,-0.83,1.08
27,1714733121706,-6.80,-3.95,13.64,2.45,-1.31,1.18
27,1714733121740,-5.37,-3.34,12.54,2.72,-1.42,1.20
27,1714733121774,-5.59,-2.31,12.44,2.85,-1.66,1.18
27,1714733121807,-4.97,-2.56,12.05,2.94,-2.22,1.08
27,1714733121840,-5.10,-1.84,10.42,3.18,-2.43,0.99
27,1714733121873,-4.90,-1.05,11.06,3.35,-2.41,1.04
27,1714733121906,-3.12,-1.09,9.67,3.70,-1.88,1.08
27,1714733121939,-3.24,0.57,8.75,3.84,-1.34,1.16
27,1714733121972,-3.07,0.82,7.87,3.70,-1.60,1.30
27,1714733122005,-1.40,1.44,6.20,3.67,-1.50,1.39
27,1714733122039,-1.13,2.24,5.16,3.46,-1.23,1.42
27,1714733122072,-0.33,3.39,3.94,3.15,-1.28,1.50
27,1714733122105,1.59,3.89,2.92,2.83,-1.20,1.47
27,1714733122138,1.83,4.64,1.99,2.38,-1.06,1.35
27,1714733122171,2.55,5.37,1.18,2.00,-0.75,1.34
27,1714733122204,3.23,5.94,0.50,1.56,-0.71,1.28
27,1714733122237,4.85,6.17,-0.71,1.19,-0.51,1.12
27,1714733122269,4.84,7.02,-0.18,0.96,0.19,0.83
27,1714733122302,5.71,6.56,1.27,0.62,-0.35,0.69
27,1714733122335,7.78,6.36,1.62,0.62,-0.29,0.36
27,1714733122368,8.61,6.88,0.48,0.53,0.44,-0.18
27,1714733122401,6.89,7.07,0.58,0.18,0.59,-0.59
27,1714733122434,6.18,6.88,0.81,-0.29,0.27,-0.85
27,1714733122468,6.18,6.78,1.07,-0.64,0.52,-1.14
27,1714733122501,5.26,6.83,1.47,-0.86,1.07,-1.36
27,1714733122533,4.20,6.48,2.36,-1.26,1.04,-1.55
27,1714733122567,3.99,5.84,1.81,-1.67,1.14,-1.81
27,1714733122600,2.69,5.16,1.24,-1.87,2.28,-1.97
27,1714733122633,-0.93,4.56,4.51,-2.54,1.62,-1.96
27,1714733122666,-1.79,2.43,5.75,-2.94,1.14,-2.02
27,1714733122699,-3.17,3.00,5.58,-3.02,1.95,-1.75
27,1714733122731,-4.01,1.78,8.66,-3.17,1.41,-1.53
27,1714733122765,-2.94,-0.20,8.75,-3.17,0.58,-1.57
27,1714733122798,-3.68,0.97,8.46,-2.99,1.94,-1.52
27,1714733122831,-5.56,-0.46,12.34,-2.87,1.17,-1.41
27,1714733122864,-2.10,-1.43,11.01,-2.43,1.22,-1.55
27,1714733122897,-2.54,-1.25,7.58,-2.04,3.56,-1.89
27,1714733122930,-11.68,-0.56,11.12,-2.61,1.41,-1.54
27,1714733122962,-4.49,-3.16,9.84,-2.64,-0.47,-1.50
27,1714733122995,-4.18,-3.76,9.66,-2.39,1.56,-1.45
27,1714733123028,-8.97,-4.40,12.44,-2.31,0.84,-1.25
27,1714733123061,-5.87,-4.99,10.80,-1.97,0.06,-1.18
27,1714733123094,-6.43,-5.84,13.37,-1.70,0.77,-0.95
27,1714733123128,-7.38,-6.07,12.77,-1.07,0.70,-0.77
27,1714733123161,-7.37,-5.30,9.46,-0.72,0.31,-0.45
27,1714733123193,-6.53,-5.21,7.08,-0.72,0.46,-0.36
27,1714733123226,-8.83,-6.76,17.54,1.82,3.62,-0.03
27,1714733123260,-10.31,-1.64,5.01,0.35,0.32,0.01
27,1714733123293,-7.71,-4.49,8.77,0.20,-0.20,0.11
27,1714733123327,-3.29,-5.58,6.79,0.05,-0.18,-0.08
27,1714733123360,-6.07,-4.55,6.90,0.05,0.02,-0.03
27,1714733123393,-4.91,-5.06,7.57,0.06,-0.21,-0.01
27,1714733123426,-5.13,-4.97,7.36,0.15,0.05,-0.03
28,1714733126487,-6.45,-3.87,10.60,2.69,-1.30,1.41
28,1714733126520,-6.25,-3.13,10.47,2.70,-1.62,1.43
28,1714733126552,-6.50,-2.66,9.34,2.67,-2.18,1.43
28,1714733126586,-4.13,-1.83,8.42,2.67,-2.25,1.38
28,1714733126619,-3.45,-0.65,8.35,2.69,-1.34,1.22
28,1714733126652,-5.01,-0.38,8.44,2.42,-1.53,1.35
28,1714733126685,-3.00,0.26,8.74,2.56,-1.44,1.43
28,1714733126718,-2.36,0.60,8.69,2.68,-1.22,1.44
28,1714733126750,-2.59,1.21,8.58,2.62,-1.63,1.47
28,1714733126783,-1.17,1.53,7.64,2.60,-1.86,1.46
28,1714733126815,0.28,2.34,7.17,2.66,-1.44,1.35
28,1714733126849,0.27,3.26,6.66,2.64,-1.37,1.30
28,1714733126882,0.52,3.68,5.95,2.50,-1.55,1.27
28,1714733126916,1.50,4.30,4.89,2.40,-1.48,1.24
28,1714733126948,2.20,4.63,3.79,2.25,-1.15,1.23
28,1714733126981,2.02,5.49,3.44,1.98,-1.06,1.23
28,1714733127014,2.61,5.77,3.17,1.68,-1.26,1.25
28,1714733127047,3.91,6.09,2.45,1.47,-1.34,1.23
28,1714733127080,5.30,6.67,1.61,1.39,-0.77,1.19
28,1714733127113,5.29,7.16,1.30,1.16,-0.55,1.06
28,1714733127146,7.35,6.62,-0.31,0.84,-0.73,0.90
28,1714733127179,8.57,6.70,-0.26,0.66,0.15,0.58
28,1714733127212,7.73,6.91,1.35,0.35,0.59,0.24
28,1714733127245,7.46,6.70,2.76,0.12,0.13,0.10
28,1714733127278,9.25,6.95,2.22,-0.02,-0.20,-0.19
28,1714733127312,8.98,7.40,1.60,-0.07,0.47,-0.64
28,1714733127345,6.98,7.53,1.72,-0.28,0.77,-0.90
28,1714733127378,6.21,7.48,1.86,-0.57,0.40,-0.97
28,1714733127411,7.18,7.02,1.64,-0.84,0.41,-1.15
28,1714733127444,6.28,6.61,1.24,-1.04,1.25,-1.44
28,1714733127477,4.17,6.18,2.49,-1.47,1.33,-1.64
28,1714733127510,3.81,5.30,3.12,-1.73,1.22,-1.74
28,1714733127543,2.55,4.81,4.31,-1.96,1.44,-1.79
28,1714733127575,1.38,4.35,4.87,-2.22,1.51,-1.87
28,1714733127608,-0.25,3.55,5.71,-2.39,1.29,-1.84
28,1714733127642,-0.51,2.91,7.13,-2.58,1.08,-1.79
28,1714733127674,-0.89,1.71,7.15,-2.56,1.43,-1.79
28,1714733127707,-4.03,1.26,8.37,-2.66,1.04,-1.61
28,1714733127740,-2.89,0.40,9.50,-2.79,0.64,-1.57
28,1714733127773,-3.16,-0.99,9.03,-2.31,1.62,-1.42
28,1714733127807,-7.72,-0.08,11.37,-2.43,0.86,-1.05
28,1714733127841,-3.26,-1.43,11.51,-2.34,-0.28,-0.85
28,1714733127874,-2.34,-1.86,9.20,-1.80,1.06,-0.78
28,1714733127907,-5.56,-1.21,10.29,-1.88,1.66,-0.70
28,1714733127939,-5.28,-2.09,10.86,-2.04,0.69,-0.55
28,1714733127972,-3.55,-3.00,9.18,-1.82,1.02,-0.47
28,1714733128005,-3.58,-3.17,10.96,-1.85,1.53,-0.53
28,1714733128038,-4.77,-3.93,11.64,-1.69,1.28,-0.62
28,1714733128072,-4.32,-4.41,9.47,-1.32,1.73,-0.60
28,1714733128104,-6.53,-3.58,11.20,-1.42,2.28,-0.50
28,1714733128137,-8.04,-4.86,13.07,-1.49,0.12,-0.38
28,1714733128171,-3.47,-5.76,11.57,-0.77,0.44,-0.44
28,1714733128203,-5.91,-4.79,9.81,-0.34,1.55,-0.33
28,1714733128236,-7.54,-4.34,8.91,-0.63,0.52,-0.31
28,1714733128269,-7.30,-4.71,9.35,-0.88,-0.75,-0.22
28,1714733128302,0.80,-10.51,17.44,1.13,-1.08,0.16
28,1714733128334,-5.99,-4.43,8.91,0.49,1.25,-0.04
28,1714733128368,-7.62,-4.02,5.71,0.36,0.49,0.11
28,1714733128400,-5.23,-5.33,8.13,0.07,-0.38,0.10
28,1714733128433,-2.38,-4.86,7.32,0.04,-0.09,-0.05
28,1714733128467,-5.31,-4.50,7.30,0.22,0.34,-0.06
28,1714733128499,-5.81,-4.82,7.93,0.20,0.00,-0.01
28,1714733128532,-5.36,-4.77,7.87,0.19,-0.03,-0.01
28,1714733128565,-5.33,-4.91,7.82,0.26,0.06,0.05
29,1714733131627,-1.40,2.47,6.99,1.39,-1.30,0.99
29,1714733131661,0.29,2.56,5.61,1.30,-0.89,0.78
29,1714733131694,1.08,3.17,5.49,1.09,-0.39,0.49
29,1714733131727,-0.27,3.47,6.16,0.93,-0.11,0.32
29,1714733131760,-0.35,4.36,6.31,0.66,-0.31,0.30
29,1714733131794,1.16,4.09,5.09,0.48,-0.20,0.14
29,1714733131827,1.07,3.99,3.69,0.28,0.33,-0.13
29,1714733131860,0.23,3.56,2.05,-0.06,0.90,-0.33
29,1714733131893,-0.29,2.18,-0.11,-0.56,1.30,-0.55
29,1714733131926,-0.89,1.17,-1.75,-1.28,1.79,-0.79
29,1714733131959,-0.81,-0.19,-1.53,-2.08,1.95,-1.07
29,1714733131993,-0.57,-1.50,2.01,-2.77,1.74,-1.42
29,1714733132026,0.53,-1.99,4.18,-2.99,1.90,-1.87
29,1714733132060,-2.20,-2.38,8.23,-3.12,2.44,-2.33
29,1714733132092,-6.59,-3.30,12.97,-3.35,1.51,-2.48
29,1714733132124,-6.74,-4.97,15.87,-2.68,1.54,-2.40
29,1714733132156,-11.57,-4.85,17.43,-1.62,1.69,-2.06
29,1714733132189,-12.09,-3.80,16.25,-1.31,0.82,-1.65
29,1714733132222,-10.69,-4.11,15.21,-0.94,0.27,-1.39
29,1714733132255,-10.52,-4.47,14.51,-0.37,0.79,-0.96
29,1714733132288,-10.34,-3.72,12.06,-0.11,0.68,-0.48
29,1714733132323,-8.41,-3.29,8.98,-0.09,0.36,-0.19
29,1714733132356,-6.45,-2.97,7.33,-0.39,-0.08,-0.07
29,1714733132389,-5.86,-3.35,6.83,-0.68,-0.92,-0.01
29,1714733132422,-4.08,-3.92,6.08,-0.75,-1.14,-0.11
29,1714733132455,-7.06,-4.71,9.69,-0.63,-1.39,0.03
29,1714733132488,-1.75,-6.26,12.21,-0.07,-1.31,0.06
29,1714733132521,-4.60,-5.38,11.60,0.65,0.83,-0.01
29,1714733132553,-5.78,-4.24,7.24,0.48,0.62,-0.02
29,1714733132585,-6.39,-4.09,8.09,0.14,-0.02,0.06
29,1714733132620,-4.71,-4.53,9.59,-0.16,-0.43,0.02
29,1714733132652,-4.78,-5.08,11.92,-0.20,-0.36,-0.09
29,1714733132685,-5.18,-7.10,15.44,0.42,0.23,0.06
29,1714733132719,-9.82,-7.82,17.95,1.97,0.60,0.49
29,1714733132752,-10.16,-6.63,15.61,2.97,-0.31,0.99
29,1714733132785,-9.45,-5.04,14.20,3.25,-0.56,1.35
29,1714733132817,-9.17,-5.00,12.94,3.85,-0.85,1.76
29,1714733132850,-7.86,-2.58,10.81,3.95,-1.30,1.85
29,1714733132883,-7.14,-2.41,9.30,3.70,-1.86,1.89
29,1714733132916,-6.42,-1.07,8.53,3.73,-1.88,2.02
29,1714733132948,-5.19,0.02,7.91,3.62,-1.89,2.13
29,1714733132981,-3.47,0.83,6.96,3.42,-2.07,2.06
29,1714733133013,-2.32,1.68,5.59,3.16,-2.06,2.00
29,1714733133048,-0.66,2.38,4.67,2.91,-1.59,1.86
29,1714733133081,-0.52,3.21,4.24,2.55,-1.29,1.70
29,1714733133114,0.21,4.05,3.48,2.09,-1.27,1.58
29,1714733133147,1.72,4.08,3.40,1.68,-1.18,1.38
29,1714733133180,1.87,4.66,4.01,1.37,-0.83,1.14
29,1714733133213,2.91,5.00,3.82,1.09,-0.58,0.93
29,1714733133247,2.19,5.64,4.18,0.81,-0.55,0.74
29,1714733133280,3.15,5.78,3.99,0.58,-0.66,0.60
29,1714733133313,4.00,6.11,3.98,0.41,-0.36,0.36
29,1714733133345,3.47,6.16,4.34,0.32,-0.12,0.15
29,1714733133379,2.74,6.71,4.76,0.21,-0.10,0.05
29,1714733133412,4.08,6.98,4.68,0.14,-0.00,-0.06
29,1714733133445,3.84,7.06,4.39,0.07,0.24,-0.23
29,1714733133478,3.34,7.26,4.97,-0.02,0.26,-0.34
29,1714733133510,3.57,7.09,5.75,-0.08,0.20,-0.42
29,1714733133544,3.71,6.69,4.91,-0.08,0.49,-0.62
29,1714733133577,3.23,6.46,2.71,-0.20,1.05,-0.83
29,1714733133610,2.03,6.60,3.47,-0.60,0.95,-0.95
29,1714733133642,2.83,5.02,2.82,-0.83,1.08,-1.20
29,1714733133676,1.24,4.09,3.12,-1.10,1.82,-1.49
29,1714733133708,-0.07,3.88,4.46,-1.39,1.66,-1.64
30,1714733136756,-5.79,-5.42,9.13,0.22,0.19,-0.11
30,1714733136789,-5.75,-6.52,10.46,0.28,-0.32,-0.09
30,1714733136822,-5.77,-6.86,11.12,0.80,-0.33,0.09
30,1714733136855,-5.52,-6.65,11.34,1.17,-0.19,0.18
30,1714733136889,-4.92,-6.45,11.24,1.37,-0.16,0.18
30,1714733136923,-5.03,-6.25,10.90,1.58,-0.28,0.12
30,1714733136956,-4.68,-5.53,10.34,1.64,-0.34,0.09
30,1714733136989,-4.34,-5.33,9.95,1.70,-0.34,-0.03
30,1714733137022,-4.64,-4.81,9.92,1.89,-0.32,-0.09
30,1714733137055,-4.45,-3.96,9.65,1.83,-0.40,-0.16
30,1714733137089,-4.42,-3.51,9.20,1.81,-0.38,-0.26
30,1714733137122,-4.64,-2.94,8.84,1.78,-0.37,-0.31
30,1714733137155,-4.88,-2.27,8.79,1.68,-0.58,-0.34
30,1714733137188,-5.12,-1.88,9.18,1.53,-0.85,-0.37
30,1714733137221,-4.17,-1.73,9.55,1.44,-1.13,-0.37
30,1714733137253,-3.73,-1.36,9.98,1.43,-1.03,-0.46
30,1714733137287,-3.60,-0.69,10.68,1.33,-1.31,-0.56
30,1714733137321,-2.26,-0.96,10.61,1.36,-1.26,-0.70
30,1714733137354,-2.15,-0.74,10.57,1.48,-1.03,-0.85
30,1714733137387,-2.18,-0.52,10.36,1.56,-1.01,-0.99
30,1714733137420,-1.88,-0.35,9.73,1.61,-0.94,-1.09
30,1714733137454,-1.77,0.07,9.34,1.64,-0.66,-1.17
30,1714733137487,-2.29,0.36,9.40,1.62,-0.58,-1.19
30,1714733137520,-2.09,0.95,9.06,1.60,-0.60,-1.17
30,1714733137554,-1.83,1.31,8.61,1.45,-0.63,-1.20
30,1714733137586,-1.89,1.20,8.31,1.42,-0.44,-1.23
30,1714733137619,-1.87,1.68,8.40,1.40,-0.15,-1.19
30,1714733137651,-2.40,2.00,8.20,1.34,-0.13,-1.09
30,1714733137684,-2.47,2.69,7.82,1.17,-0.24,-1.00
30,1714733137717,-1.86,2.82,7.82,1.00,-0.38,-0.97
30,1714733137751,-1.84,3.14,7.74,0.93,-0.18,-0.91
30,1714733137784,-2.26,3.63,7.34,0.83,-0.05,-0.86
30,1714733137817,-2.92,3.69,7.52,0.61,-0.16,-0.76
30,1714733137850,-2.78,3.86,7.96,0.49,-0.18,-0.62
30,1714733137883,-2.48,3.86,7.51,0.50,0.10,-0.52
30,1714733137915,-3.45,4.11,7.61,0.37,0.15,-0.30
30,1714733137947,-3.22,4.01,7.41,0.25,0.03,-0.13
30,1714733137980,-2.81,4.18,7.48,0.16,0.08,0.03
30,1714733138013,-2.76,4.17,7.63,0.08,0.21,0.17
30,1714733138046,-3.01,4.16,7.83,0.01,0.23,0.28
30,1714733138079,-3.05,3.85,7.30,-0.06,0.38,0.39
30,1714733138112,-3.39,3.88,7.78,-0.22,0.38,0.55
30,1714733138144,-3.43,3.25,7.77,-0.25,0.38,0.71
30,1714733138178,-3.47,2.90,7.55,-0.26,0.68,0.86
30,1714733138211,-3.60,3.37,7.99,-0.40,0.56,1.01
30,1714733138243,-3.15,2.83,7.92,-0.47,0.44,1.10
30,1714733138276,-2.57,2.46,8.28,-0.49,0.64,1.13
30,1714733138310,-2.88,3.10,8.42,-0.60,0.61,1.15
30,1714733138343,-2.58,1.88,8.72,-0.69,0.64,1.16
30,1714733138376,-2.30,2.60,9.15,-0.75,0.49,1.10
30,1714733138409,-1.88,2.08,8.42,-0.70,0.53,1.02
30,1714733138442,-2.22,1.27,9.07,-0.63,0.97,0.92
30,1714733138476,-2.70,2.08,9.36,-0.60,1.09,0.81
30,1714733138509,-3.31,1.66,8.77,-0.68,1.18,0.77
30,1714733138542,-3.35,1.58,9.68,-0.78,0.97,0.73
30,1714733138576,-3.62,1.58,9.25,-0.92,0.69,0.68
30,1714733138608,-3.55,0.41,9.28,-1.01,1.06,0.62
30,1714733138641,-3.61,0.11,10.01,-0.94,0.99,0.47
30,1714733138674,-3.94,0.51,9.05,-0.91,0.96,0.40
30,1714733138708,-4.13,-0.26,8.85,-1.05,1.50,0.30
30,1714733138740,-4.92,-0.17,10.23,-1.16,1.18,0.23
30,1714733138773,-4.75,-0.61,9.38,-1.25,0.62,0.19
30,1714733138806,-4.85,-1.46,9.82,-1.43,0.92,0.08
30,1714733138839,-4.98,-1.91,11.04,-1.45,0.62,-0.01
31,1714733141900,-4.97,-0.83,8.55,2.43,-1.27,1.28
31,1714733141933,-4.07,-0.07,7.85,2.52,-1.44,1.33
31,1714733141966,-1.94,0.77,5.85,2.39,-0.87,1.22
31,1714733142000,-1.80,1.49,5.34,1.97,-0.57,0.98
31,1714733142033,-1.19,1.68,4.21,1.60,-0.59,0.81
31,1714733142067,-0.92,2.23,4.49,1.23,-0.53,0.60
31,1714733142100,-2.01,3.37,6.51,0.88,-0.57,0.56
31,1714733142133,-1.02,3.02,8.06,0.80,-0.69,0.62
31,1714733142167,-0.80,3.89,9.04,1.05,-0.68,0.57
31,1714733142200,0.43,4.48,8.15,1.08,-0.32,0.38
31,1714733142233,-1.98,5.47,9.55,0.97,-0.37,0.32
31,1714733142266,-1.30,6.35,9.93,1.15,-0.87,0.57
31,1714733142299,-1.19,6.74,9.93,1.01,-0.90,0.54
31,1714733142332,-0.29,6.54,9.61,1.05,-0.68,0.57
31,1714733142364,-0.65,6.42,9.40,1.21,-0.56,0.70
31,1714733142397,-0.65,6.85,9.25,1.16,-0.92,0.76
31,1714733142430,0.40,6.88,8.52,1.23,-1.00,0.85
31,1714733142462,0.01,6.10,8.32,1.34,-1.05,0.92
31,1714733142495,1.00,6.26,7.28,1.53,-1.04,0.97
31,1714733142529,0.15,5.91,6.68,1.52,-1.00,1.02
31,1714733142562,1.23,5.89,5.51,1.60,-1.00,1.09
31,1714733142595,2.30,6.35,4.71,1.56,-0.77,1.12
31,1714733142627,2.92,6.14,3.74,1.37,-0.84,1.08
31,1714733142659,4.80,6.60,2.77,1.22,-0.63,0.98
31,1714733142691,5.24,6.75,2.76,0.90,-0.35,0.73
31,1714733142725,5.37,7.01,3.40,0.70,-0.20,0.55
31,1714733142759,5.30,7.37,3.34,0.52,-0.18,0.41
31,1714733142791,5.25,7.60,3.40,0.33,-0.02,0.21
31,1714733142824,4.85,7.69,4.45,0.26,-0.06,0.16
31,1714733142856,5.36,7.78,4.57,0.29,-0.08,0.11
31,1714733142889,4.76,7.82,4.99,0.32,0.02,-0.00
31,1714733142922,3.85,7.96,5.33,0.36,-0.17,0.02
31,1714733142956,5.14,7.82,5.04,0.47,-0.15,0.07
31,1714733142988,4.46,7.92,5.18,0.58,-0.04,0.06
31,1714733143021,5.28,7.74,3.35,0.59,0.19,0.01
31,1714733143054,5.02,7.39,3.17,0.42,-0.00,-0.08
31,1714733143087,6.71,6.89,2.19,0.25,-0.05,-0.29
31,1714733143120,6.42,6.44,1.80,0.07,0.34,-0.73
31,1714733143154,5.22,6.69,2.10,-0.10,0.53,-0.99
31,1714733143187,3.80,6.86,1.96,-0.33,0.76,-1.14
31,1714733143220,4.28,7.16,2.51,-0.54,0.71,-1.15
31,1714733143254,4.76,7.00,1.66,-0.66,1.27,-1.39
31,1714733143287,3.09,8.37,4.18,-1.14,1.06,-1.47
31,1714733143320,4.41,7.27,3.18,-1.17,1.23,-1.55
31,1714733143353,0.15,6.94,3.40,-1.30,2.19,-1.66
31,1714733143386,-0.62,5.51,6.21,-2.00,0.76,-1.65
31,1714733143420,0.94,3.16,5.36,-1.80,1.44,-1.74
31,1714733143453,-2.91,2.49,4.47,-1.74,2.47,-1.90
31,1714733143487,-5.66,3.23,6.47,-2.14,1.48,-1.68
31,1714733143519,-4.10,2.44,5.57,-2.34,1.48,-1.52
31,1714733143551,-3.69,1.48,7.50,-2.56,1.98,-1.61
31,1714733143584,-5.70,1.17,10.90,-2.51,1.27,-1.54
31,1714733143617,-4.16,0.77,9.31,-2.36,0.90,-1.54
31,1714733143650,-4.16,0.10,10.45,-2.46,1.31,-1.67
31,1714733143683,-7.90,-0.78,14.91,-1.83,1.07,-1.45
31,1714733143716,-7.80,-0.37,13.39,-1.37,0.68,-1.20
31,1714733143753,-6.65,0.50,10.87,-1.22,1.30,-1.15
31,1714733143785,-8.67,0.31,14.14,-1.24,0.65,-0.90
31,1714733143817,-6.05,-0.42,14.24,-0.77,0.19,-0.77
31,1714733143850,-5.83,-0.37,12.01,-0.31,0.54,-0.84
31,1714733143884,-7.21,-0.31,11.17,-0.20,0.54,-0.72
31,1714733143917,-8.33,-1.00,10.87,-0.08,0.13,-0.41
31,1714733143949,-7.19,-1.05,9.36,-0.07,0.07,-0.21
31,1714733143982,-6.39,-0.72,9.78,-0.09,0.15,-0.06
32,1714733147032,-5.41,-3.60,8.03,0.21,0.01,-0.05
32,1714733147065,-5.40,-3.63,7.95,0.21,0.00,-0.03
32,1714733147098,-5.50,-3.73,7.98,0.20,-0.01,-0.02
32,1714733147131,-5.35,-3.84,8.12,0.20,-0.01,-0.03
32,1714733147165,-5.49,-3.76,8.15,0.21,0.02,-0.02
32,1714733147198,-5.40,-3.73,8.20,0.18,0.01,0.01
32,1714733147232,-4.98,-3.75,8.12,0.14,0.06,-0.00
32,1714733147265,-5.46,-3.55,8.60,0.12,0.08,-0.02
32,1714733147296,-5.44,-3.41,8.54,0.06,0.10,-0.08
32,1714733147329,-6.32,-3.52,9.56,-0.16,-0.08,-0.08
32,1714733147363,-6.25,-3.81,11.59,-0.14,-0.08,0.06
32,1714733147396,-7.01,-4.70,12.75,0.06,-0.05,0.11
32,1714733147428,-9.33,-6.54,14.85,0.80,-0.53,0.55
32,1714733147462,-8.71,-5.38,15.20,1.52,-1.12,0.89
32,1714733147495,-6.67,-4.05,13.91,1.78,-1.27,0.94
32,1714733147528,-5.76,-3.83,12.80,1.94,-1.35,0.93
32,1714733147561,-5.19,-3.18,11.54,2.16,-1.39,0.85
32,1714733147593,-4.98,-2.39,10.71,2.22,-1.55,0.83
32,1714733147626,-5.11,-1.74,9.92,2.15,-1.65,0.77
32,1714733147659,-4.92,-1.37,9.61,2.11,-1.82,0.73
32,1714733147693,-3.65,-1.11,8.90,2.14,-1.73,0.67
32,1714733147725,-3.59,-0.30,8.47,2.13,-1.39,0.62
32,1714733147757,-4.19,0.25,8.80,2.00,-1.51,0.63
32,1714733147791,-3.03,0.40,8.50,1.98,-1.66,0.65
32,1714733147824,-2.49,0.86,8.32,1.99,-1.36,0.66
32,1714733147857,-2.17,1.36,8.31,1.98,-1.19,0.73
32,1714733147890,-1.57,1.69,8.15,2.01,-1.15,0.75
32,1714733147923,-1.37,2.11,8.12,2.00,-1.21,0.76
32,1714733147956,-0.23,2.76,7.86,2.04,-1.16,0.79
32,1714733147990,0.28,2.99,7.42,2.10,-0.98,0.76
32,1714733148023,0.63,3.54,7.13,2.19,-0.95,0.78
32,1714733148056,1.78,4.19,6.51,2.17,-0.64,0.75
32,1714733148090,1.95,4.44,5.54,2.04,-0.17,0.70
32,1714733148124,1.43,5.10,5.18,1.96,0.14,0.71
32,1714733148157,1.20,6.14,5.31,1.76,-0.45,0.84
32,1714733148191,2.60,6.32,4.92,1.48,-1.04,0.82
32,1714733148225,4.16,6.87,4.30,1.40,-1.24,0.77
32,1714733148258,5.11,7.51,3.75,1.36,-0.83,0.69
32,1714733148292,4.68,7.85,3.15,1.15,-0.54,0.55
32,1714733148325,5.78,7.60,1.93,1.12,-0.26,0.48
32,1714733148358,4.91,8.02,1.68,0.87,-0.05,0.39
32,1714733148391,5.89,7.96,1.24,0.42,0.06,0.22
32,1714733148424,6.28,7.85,1.14,0.14,0.37,0.01
32,1714733148457,5.77,7.61,1.50,-0.27,0.46,-0.20
32,1714733148490,5.77,7.10,2.42,-0.53,0.55,-0.43
32,1714733148524,5.29,6.84,2.89,-0.64,0.76,-0.62
32,1714733148557,4.27,6.76,3.59,-0.84,0.67,-0.75
32,1714733148590,4.52,5.96,3.65,-0.98,0.62,-0.87
32,1714733148624,3.78,6.01,3.74,-1.10,1.32,-1.07
32,1714733148656,2.04,5.64,5.81,-1.35,1.41,-1.19
32,1714733148689,1.25,4.48,5.77,-1.38,1.03,-1.24
32,1714733148722,0.37,4.63,6.09,-1.50,1.29,-1.26
32,1714733148755,-0.58,4.20,7.16,-1.64,1.28,-1.23
32,1714733148787,-0.84,3.51,7.02,-1.66,1.30,-1.24
32,1714733148821,-0.74,3.55,7.45,-1.82,1.33,-1.28
32,1714733148852,-1.87,2.31,8.47,-1.81,1.27,-1.30
32,1714733148886,-2.03,1.32,8.94,-1.80,1.18,-1.38
32,1714733148919,-2.39,1.03,8.84,-1.72,1.46,-1.43
32,1714733148952,-3.70,1.70,9.87,-1.74,1.36,-1.43
32,1714733148985,-3.46,1.00,10.29,-1.81,1.02,-1.38
32,1714733149018,-3.91,0.20,10.81,-1.72,1.44,-1.44
32,1714733149051,-5.68,0.34,11.43,-1.73,1.14,-1.33
32,1714733149084,-5.49,-0.59,11.28,-1.65,0.70,-1.20
32,1714733149116,-5.42,-1.42,11.52,-1.51,0.95,-1.13
33,1714733152171,-5.71,-4.23,7.06,0.17,-0.00,-0.00
33,1714733152204,-5.61,-4.25,7.18,0.19,0.02,-0.03
33,1714733152237,-5.88,-3.92,7.45,0.20,0.01,-0.07
33,1714733152270,-5.53,-4.12,7.47,0.15,0.03,-0.05
33,1714733152303,-6.05,-4.07,7.32,0.11,0.07,-0.05
33,1714733152337,-6.39,-3.94,7.70,0.08,0.01,-0.05
33,1714733152370,-6.11,-4.31,7.86,-0.02,-0.10,-0.06
33,1714733152404,-6.34,-4.56,7.82,-0.06,-0.17,-0.04
33,1714733152436,-6.43,-4.30,8.09,-0.06,-0.28,0.04
33,1714733152470,-7.25,-4.37,8.76,-0.05,-0.47,0.12
33,1714733152503,-6.66,-4.96,9.41,0.12,-0.76,0.20
33,1714733152536,-5.90,-4.87,9.89,0.29,-0.71,0.22
33,1714733152569,-5.47,-5.38,9.88,0.61,-0.28,0.26
33,1714733152602,-6.41,-5.23,10.38,0.99,0.05,0.39
33,1714733152634,-7.62,-4.54,10.82,1.01,-0.40,0.55
33,1714733152667,-6.49,-4.54,10.65,1.00,-0.79,0.59
33,1714733152699,-6.66,-4.56,10.58,1.21,-0.87,0.67
33,1714733152732,-6.07,-3.93,10.41,1.46,-0.84,0.80
33,1714733152764,-5.86,-3.03,9.97,1.51,-0.80,0.82
33,1714733152798,-5.55,-2.49,9.87,1.50,-1.04,0.80
33,1714733152831,-5.33,-2.09,9.91,1.63,-1.18,0.77
33,1714733152864,-5.28,-1.70,9.86,1.63,-1.18,0.76
33,1714733152896,-5.01,-1.04,9.97,1.68,-1.18,0.76
33,1714733152929,-4.69,-0.80,10.09,1.75,-1.26,0.79
33,1714733152961,-3.68,-0.40,9.70,1.86,-1.27,0.75
33,1714733152993,-3.95,0.44,9.55,1.88,-1.12,0.73
33,1714733153026,-4.39,1.01,9.77,1.77,-1.41,0.82
33,1714733153059,-3.14,1.14,9.91,1.77,-1.51,0.86
33,1714733153092,-2.93,1.15,9.67,1.90,-1.48,0.87
33,1714733153124,-2.33,2.01,8.82,1.97,-1.23,0.92
33,1714733153156,-2.37,2.16,8.98,1.85,-1.30,0.96
33,1714733153189,-1.45,2.58,8.62,1.90,-1.57,0.97
33,1714733153223,-0.30,2.83,8.13,1.97,-1.42,0.96
33,1714733153256,0.69,3.44,7.72,2.05,-1.02,0.90
33,1714733153289,0.11,3.35,8.00,1.97,-1.04,0.84
33,1714733153322,0.62,3.70,6.90,1.97,-1.50,0.84
33,1714733153355,2.60,4.58,5.91,1.88,-1.24,0.82
33,1714733153388,2.49,5.05,5.49,1.74,-0.75,0.70
33,1714733153421,2.12,5.56,4.95,1.53,-0.93,0.67
33,1714733153454,2.42,6.21,4.83,1.34,-1.21,0.72
33,1714733153487,4.05,6.24,4.76,1.19,-1.18,0.64
33,1714733153520,4.74,6.45,4.51,1.16,-0.60,0.54
33,1714733153553,4.08,6.69,4.39,1.09,-0.28,0.47
33,1714733153584,4.63,7.27,3.91,1.00,-0.42,0.47
33,1714733153616,5.21,7.37,3.78,0.77,-0.42,0.37
33,1714733153650,5.85,7.31,3.53,0.65,-0.18,0.23
33,1714733153683,5.42,7.50,3.21,0.58,0.10,0.17
33,1714733153717,5.30,7.69,3.41,0.32,0.16,0.06
33,1714733153750,6.05,7.16,3.18,0.11,0.19,-0.08
33,1714733153783,5.24,6.97,3.08,-0.02,0.35,-0.21
33,1714733153814,5.10,6.55,3.79,-0.21,0.38,-0.32
33,1714733153847,5.49,6.02,2.97,-0.32,0.67,-0.55
33,1714733153880,4.28,6.02,2.06,-0.45,1.22,-0.78
33,1714733153912,3.64,5.98,3.56,-0.90,0.86,-0.86
33,1714733153945,4.48,4.89,2.30,-1.04,1.25,-1.11
33,1714733153977,2.17,5.22,3.45,-1.29,1.90,-1.24
33,1714733154010,1.35,5.14,5.83,-1.74,1.27,-1.32
33,1714733154043,1.65,4.00,5.52,-1.73,1.73,-1.44
33,1714733154076,-0.42,4.03,7.82,-1.83,1.62,-1.46
33,1714733154109,-1.04,3.81,7.43,-1.85,1.53,-1.49
33,1714733154142,-2.62,2.65,9.78,-2.04,1.31,-1.44
33,1714733154175,-2.14,2.55,10.29,-1.86,1.17,-1.40
33,1714733154207,-3.84,2.38,9.14,-1.72,1.49,-1.20
33,1714733154241,-4.16,1.51,11.44,-2.01,0.88,-1.14
34,1714733157277,-5.04,-4.15,7.36,0.23,-0.00,-0.05
34,1714733157310,-5.56,-4.18,7.53,0.24,0.04,-0.05
34,1714733157344,-5.50,-4.29,7.50,0.23,0.01,-0.05
34,1714733157376,-5.08,-4.18,7.47,0.20,-0.00,-0.05
34,1714733157410,-5.30,-4.22,7.49,0.19,0.04,-0.06
34,1714733157443,-5.83,-4.43,7.44,0.18,0.06,-0.03
34,1714733157476,-5.79,-4.56,7.54,0.17,0.04,0.01
34,1714733157509,-5.13,-4.50,7.27,0.11,0.04,0.02
34,1714733157543,-5.23,-4.24,7.39,0.09,0.04,-0.03
34,1714733157575,-5.33,-4.36,7.54,0.14,0.04,-0.10
34,1714733157608,-5.65,-4.47,7.42,0.18,0.06,-0.11
34,1714733157640,-5.60,-4.66,7.39,0.19,0.05,-0.09
34,1714733157674,-5.68,-4.73,7.37,0.21,0.07,-0.07
34,1714733157708,-5.78,-4.74,7.31,0.25,0.05,-0.07
34,1714733157741,-5.89,-4.40,8.08,0.22,0.12,-0.07
34,1714733157774,-6.27,-4.29,9.61,-0.08,0.03,-0.01
34,1714733157806,-8.09,-4.63,11.85,-0.51,-0.37,0.02
34,1714733157839,-10.65,-6.07,13.79,-0.64,-0.67,0.34
34,1714733157871,-11.09,-7.96,14.85,-0.16,-0.54,0.83
34,1714733157903,-11.26,-9.45,15.92,0.68,-0.51,1.63
34,1714733157936,-12.83,-8.66,15.48,1.64,-0.93,2.22
34,1714733157968,-10.95,-7.97,15.46,2.05,-1.90,2.81
34,1714733158001,-9.90,-7.44,12.45,2.33,-2.45,2.67
34,1714733158034,-8.28,-5.02,9.35,2.93,-2.92,2.89
34,1714733158067,-7.81,-3.39,9.28,3.20,-3.85,1.87
34,1714733158101,-9.29,-3.79,7.35,3.31,-4.37,1.26
34,1714733158134,-3.30,-4.41,2.54,3.61,-4.37,0.64
34,1714733158168,-1.05,-3.70,1.98,4.37,-4.37,-0.29
34,1714733158201,-4.65,-2.50,0.10,4.37,-4.37,1.28
34,1714733158233,6.82,-1.70,-4.10,4.37,-2.40,0.88
34,1714733158265,2.25,2.05,-3.50,4.37,-0.27,0.89
34,1714733158298,0.69,2.97,-3.70,3.21,-1.18,1.01
34,1714733158331,3.97,3.60,-5.01,1.59,-1.26,0.70
34,1714733158365,4.80,4.81,-4.56,0.58,-0.21,0.45
34,1714733158398,5.31,5.16,-3.45,-0.46,-0.09,0.11
34,1714733158431,6.09,4.91,-1.68,-1.04,0.56,-0.19
34,1714733158465,6.36,4.10,-0.19,-1.57,0.96,-0.76
34,1714733158498,4.65,2.96,-0.21,-1.91,1.64,-1.32
34,1714733158531,1.93,2.40,-0.59,-2.33,2.35,-1.64
34,1714733158564,0.92,0.14,-1.86,-2.91,3.06,-2.02
34,1714733158597,-1.22,-1.89,4.19,-3.47,3.45,-2.58
34,1714733158630,-2.87,-3.30,6.28,-3.55,3.59,-2.80
34,1714733158663,-4.30,-1.73,8.35,-3.91,3.80,-2.78
34,1714733158696,-6.47,-2.30,14.84,-4.37,2.30,-3.21
34,1714733158728,-7.96,-4.67,13.65,-4.37,2.05,-2.87
34,1714733158761,-8.21,-5.61,18.70,-3.67,2.12,-2.07
34,1714733158795,-9.95,-4.82,19.61,-3.26,0.70,-2.17
34,1714733158828,-9.98,-6.52,14.68,-2.42,1.00,-1.69
34,1714733158861,-9.17,-4.91,13.52,-1.59,1.55,-0.86
34,1714733158895,4.38,-11.21,19.61,1.93,4.37,-1.55
34,1714733158927,-19.61,-1.35,15.83,1.74,4.37,0.38
34,1714733158960,-12.33,-1.00,4.87,0.27,-0.95,-0.35
34,1714733158992,-8.58,-2.26,6.42,-0.24,-0.49,0.22
34,1714733159026,-4.37,-5.21,8.50,-0.04,-0.84,0.02
34,1714733159059,-6.05,-3.25,5.49,-0.17,-0.03,0.04
34,1714733159092,-5.88,-4.85,7.66,-0.08,-0.12,-0.03
34,1714733159125,-6.09,-4.02,6.85,0.05,0.11,-0.01
34,1714733159157,-7.85,-3.71,7.24,0.07,-0.20,0.09
34,1714733159191,-6.12,-3.93,7.05,0.05,-0.33,0.14
34,1714733159224,-5.37,-3.94,6.56,0.10,-0.18,0.09
34,1714733159258,-5.33,-3.96,6.98,0.25,0.14,-0.05
34,1714733159290,-6.60,-3.67,7.32,0.24,0.15,-0.02
34,1714733159324,-6.52,-3.77,6.97,0.24,0.08,-0.03
34,1714733159358,-6.69,-3.64,6.91,0.22,-0.01,-0.00
35,1714733162418,-8.71,-3.31,11.37,-0.91,-0.72,-0.10
35,1714733162451,-8.84,-5.21,12.21,-1.07,-1.14,0.04
35,1714733162485,-11.47,-6.59,13.43,-0.23,-1.30,0.70
35,1714733162517,-8.43,-7.63,15.14,0.79,-1.87,0.97
35,1714733162551,-9.15,-7.24,15.10,1.46,-1.22,1.21
35,1714733162584,-9.25,-6.50,14.70,1.75,-1.30,1.47
35,1714733162617,-8.83,-6.28,13.68,2.25,-1.80,1.60
35,1714733162650,-7.34,-4.98,11.43,2.74,-2.28,1.60
35,1714733162682,-7.14,-3.71,10.49,2.78,-2.54,1.54
35,1714733162715,-6.39,-3.59,9.11,2.96,-2.86,1.47
35,1714733162749,-4.14,-2.24,8.06,3.20,-3.15,1.34
35,1714733162782,-4.85,-1.42,7.82,2.96,-3.12,1.32
35,1714733162815,-2.60,-1.51,6.81,3.14,-3.18,1.20
35,1714733162848,-1.68,-0.63,6.23,3.28,-2.80,1.08
35,1714733162881,-1.16,-0.40,5.58,3.36,-2.50,1.12
35,1714733162913,-0.02,0.60,5.04,3.31,-1.90,1.10
35,1714733162946,-0.70,0.77,4.75,3.20,-2.03,1.12
35,1714733162979,0.04,1.65,3.51,3.09,-2.49,1.20
35,1714733163012,3.47,2.26,2.26,2.91,-1.99,1.05
35,1714733163045,3.56,2.92,1.31,2.69,-1.31,0.86
35,1714733163079,5.21,4.08,-1.24,2.37,-0.87,0.71
35,1714733163111,5.66,6.20,-2.23,1.87,-0.02,0.63
35,1714733163144,5.72,6.87,-1.01,1.18,0.06,0.54
35,1714733163177,7.25,6.62,-0.39,0.65,-0.65,0.36
35,1714733163210,8.85,6.92,-0.24,0.38,-0.41,0.09
35,1714733163243,8.78,6.51,0.38,0.22,0.30,-0.30
35,1714733163276,7.53,6.84,0.85,-0.12,0.48,-0.67
35,1714733163309,7.59,6.70,1.04,-0.55,0.58,-0.96
35,1714733163341,6.83,6.45,0.36,-0.80,1.14,-1.23
35,1714733163374,4.63,5.92,1.46,-1.21,1.55,-1.42
35,1714733163406,4.36,4.95,2.99,-1.87,1.28,-1.62
35,1714733163438,3.67,4.11,2.23,-2.01,1.98,-1.74
35,1714733163471,0.71,3.86,5.37,-2.55,1.84,-1.76
35,1714733163503,-0.14,2.31,6.16,-2.78,1.61,-1.85
35,1714733163536,-1.32,2.16,6.15,-2.67,2.41,-1.67
35,1714733163569,-3.96,2.00,9.24,-2.87,1.94,-1.52
35,1714733163601,-3.13,-0.03,8.66,-2.70,1.56,-1.49
35,1714733163634,-3.10,0.68,8.04,-2.53,2.43,-1.34
35,1714733163667,-4.77,0.31,8.54,-2.68,2.34,-1.40
35,1714733163701,-4.53,-1.24,7.41,-2.62,2.04,-1.56
35,1714733163734,-5.55,-2.26,6.50,-2.56,3.28,-1.67
35,1714733163767,-9.42,-1.66,10.12,-3.14,2.70,-1.51
35,1714733163799,-7.36,-3.87,10.80,-2.95,0.86,-1.45
35,1714733163833,-6.43,-4.30,14.70,-2.55,1.09,-1.29
35,1714733163864,-8.77,-5.29,15.02,-2.10,0.78,-0.98
35,1714733163898,-6.19,-5.72,12.05,-1.38,0.34,-0.89
35,1714733163930,-6.00,-5.26,13.77,-1.21,0.26,-0.79
35,1714733163963,-4.10,-5.97,13.09,-1.08,-0.13,-0.94
35,1714733163996,-3.29,-6.15,9.91,-0.59,-0.05,-1.12
35,1714733164028,-3.68,-11.75,17.05,3.31,2.93,-0.59
35,1714733164061,-14.62,-1.42,11.25,1.22,2.30,0.26
35,1714733164094,-9.96,-2.69,6.46,0.38,0.10,0.05
35,1714733164128,-5.14,-4.01,8.81,0.23,-0.43,-0.01
35,1714733164161,-3.66,-4.47,7.98,0.28,0.04,-0.09
35,1714733164194,-5.48,-3.95,7.19,0.27,0.40,-0.01
35,1714733164228,-6.13,-3.80,7.37,0.13,-0.00,-0.00
35,1714733164260,-5.33,-4.40,7.45,0.12,-0.03,0.02
35,1714733164292,-5.79,-4.43,7.52,0.18,0.07,0.02
35,1714733164326,-5.68,-4.41,7.21,0.18,0.08,0.03
35,1714733164359,-6.08,-4.16,7.23,0.21,0.10,0.02
35,1714733164392,-6.29,-4.07,7.49,0.19,-0.03,0.03
35,1714733164425,-5.55,-4.22,7.45,0.19,-0.03,-0.00
35,1714733164458,-5.52,-4.30,7.30,0.23,0.03,-0.03
35,1714733164491,-5.82,-4.11,7.34,0.21,-0.02,-0.02
36,1714733167526,-5.69,-4.33,7.50,0.17,0.00,-0.04
36,1714733167559,-5.79,-4.31,7.34,0.16,0.00,-0.05
36,1714733167592,-5.76,-4.25,7.51,0.14,-0.01,-0.06
36,1714733167625,-5.44,-4.39,7.31,0.13,-0.01,-0.09
36,1714733167658,-5.71,-4.30,7.30,0.15,0.01,-0.11
36,1714733167691,-5.81,-4.36,7.39,0.15,-0.04,-0.11
36,1714733167724,-5.43,-4.37,7.46,0.13,-0.01,-0.12
36,1714733167758,-5.60,-4.38,7.42,0.09,0.01,-0.14
36,1714733167791,-6.00,-4.19,8.20,-0.02,0.01,-0.14
36,1714733167823,-6.71,-4.49,9.43,-0.38,-0.20,-0.17
36,1714733167856,-7.68,-5.04,10.91,-0.58,-0.54,-0.11
36,1714733167888,-8.40,-6.11,11.80,-0.35,-0.81,0.23
36,1714733167921,-8.64,-7.58,13.35,0.32,-1.13,0.67
36,1714733167954,-7.26,-7.41,14.79,1.31,-1.31,0.67
36,1714733167987,-8.21,-6.58,14.47,1.75,-0.91,0.89
36,1714733168019,-9.42,-6.87,14.16,1.98,-1.05,1.26
36,1714733168052,-9.50,-6.35,14.28,2.56,-1.55,1.48
36,1714733168085,-8.95,-5.32,13.38,3.07,-2.08,1.61
36,1714733168119,-7.03,-4.03,11.60,3.25,-2.32,1.59
36,1714733168152,-7.35,-3.51,10.62,3.41,-2.63,1.48
36,1714733168185,-5.85,-2.98,8.64,3.67,-3.02,1.45
36,1714733168219,-4.19,-1.70,6.86,3.70,-2.70,1.46
36,1714733168251,-4.93,-1.24,6.50,3.52,-2.62,1.50
36,1714733168284,-2.79,-0.90,5.34,3.65,-2.71,1.63
36,1714733168317,-1.50,0.28,4.83,3.56,-2.32,1.70
36,1714733168350,-0.60,0.80,3.67,3.29,-2.22,1.67
36,1714733168383,1.62,1.61,3.22,3.17,-1.71,1.63
36,1714733168416,1.62,2.36,2.77,2.85,-1.80,1.57
36,1714733168449,3.03,2.76,2.07,2.52,-2.04,1.44
36,1714733168482,4.84,3.48,0.22,2.24,-1.65,1.29
36,1714733168514,5.09,4.54,-0.22,1.91,-1.08,1.15
36,1714733168547,6.48,5.15,-0.85,1.37,-1.08,0.96
36,1714733168580,7.71,5.69,-1.03,0.97,-0.93,0.76
36,1714733168613,8.75,6.00,-0.37,0.65,-0.65,0.42
36,1714733168646,9.78,6.02,-0.59,0.43,-0.33,-0.00
36,1714733168679,8.78,6.89,-0.51,0.32,0.34,-0.32
36,1714733168711,8.03,6.95,-0.66,-0.05,0.31,-0.50
36,1714733168743,7.27,6.89,-0.63,-0.36,0.70,-0.70
36,1714733168777,6.73,6.86,0.10,-0.70,0.92,-0.87
36,1714733168809,6.24,6.44,-0.05,-1.00,1.23,-1.04
36,1714733168843,5.35,5.59,0.31,-1.45,1.66,-1.19
36,1714733168876,5.17,4.66,0.42,-1.91,1.90,-1.42
36,1714733168909,3.62,3.79,1.47,-2.16,2.58,-1.57
36,1714733168941,1.59,2.21,3.86,-2.67,1.90,-1.70
36,1714733168974,2.05,1.64,3.84,-2.76,2.29,-1.88
36,1714733169007,-1.38,0.88,5.70,-2.91,2.79,-1.89
36,1714733169039,-3.61,-0.57,8.38,-3.08,2.15,-1.95
36,1714733169073,-4.41,-0.66,7.54,-2.96,2.23,-1.77
36,1714733169107,-5.42,-0.75,10.84,-3.10,1.64,-1.47
36,1714733169140,-2.62,-2.28,10.14,-2.71,1.68,-1.52
36,1714733169174,-4.41,-1.64,8.31,-2.33,3.15,-1.57
36,1714733169208,-7.89,-1.87,10.52,-2.79,1.87,-1.51
36,1714733169241,-4.50,-3.20,8.85,-2.63,1.44,-1.49
36,1714733169274,-5.10,-3.53,10.57,-2.48,2.51,-1.60
36,1714733169307,-9.24,-4.43,13.89,-2.62,1.36,-1.57
36,1714733169340,-6.94,-5.90,11.03,-1.72,1.26,-1.39
36,1714733169373,-8.65,-4.39,12.39,-1.29,1.79,-0.89
36,1714733169406,-8.97,-4.88,13.11,-1.49,0.87,-0.67
36,1714733169440,-7.28,-6.11,11.07,-1.13,0.24,-0.60
36,1714733169473,-6.62,-5.70,8.27,-0.80,0.14,-0.46
36,1714733169506,-9.16,-6.78,15.88,-0.23,0.08,-0.18
36,1714733169539,-2.66,-5.73,19.02,1.01,0.59,-0.27
36,1714733169573,-5.14,-4.20,5.93,0.64,1.14,-0.04
36,1714733169606,-7.97,-3.57,7.20,0.71,0.36,0.17
37,1714733172664,-5.96,-4.25,6.95,0.18,0.00,0.00
37,1714733172698,-5.54,-4.29,6.92,0.19,0.02,-0.01
37,1714733172731,-5.67,-4.28,7.39,0.20,0.02,-0.04
37,1714733172764,-5.88,-4.18,7.41,0.23,0.06,-0.06
37,1714733172797,-5.96,-3.99,7.36,0.23,0.04,-0.05
37,1714733172830,-6.27,-3.93,7.71,0.23,0.03,-0.03
37,1714733172864,-6.22,-4.26,7.15,0.21,-0.00,-0.00
37,1714733172896,-5.81,-4.33,6.85,0.20,-0.00,-0.00
37,1714733172929,-5.89,-4.12,7.24,0.19,-0.00,-0.02
37,1714733172962,-5.61,-4.18,7.45,0.20,0.00,-0.05
37,1714733172994,-5.87,-4.16,7.47,0.21,0.02,-0.06
37,1714733173028,-6.06,-3.87,7.21,0.19,0.01,-0.06
37,1714733173061,-6.13,-3.85,7.50,0.16,-0.03,-0.04
37,1714733173094,-6.30,-4.16,7.13,0.14,-0.04,-0.01
37,1714733173127,-5.80,-4.25,7.20,0.10,-0.10,-0.02
37,1714733173160,-5.22,-4.28,7.16,0.08,-0.08,-0.04
37,1714733173193,-5.83,-4.25,7.96,0.04,0.05,-0.08
37,1714733173227,-5.82,-4.21,8.16,-0.22,0.01,-0.09
37,1714733173260,-6.86,-4.00,11.19,-0.58,-0.17,0.02
37,1714733173293,-9.02,-5.54,12.54,-0.45,-0.57,0.25
37,1714733173326,-8.65,-5.86,11.68,0.44,-0.95,0.67
37,1714733173359,-8.72,-5.46,12.77,0.93,-1.02,0.77
37,1714733173392,-8.96,-5.91,12.32,1.29,-0.74,1.12
37,1714733173425,-7.83,-5.17,11.52,1.69,-0.97,1.17
37,1714733173458,-8.02,-4.05,11.83,1.81,-1.44,1.32
37,1714733173490,-6.42,-4.31,11.18,1.86,-1.88,1.33
37,1714733173523,-5.71,-3.55,11.08,2.21,-1.70,1.20
37,1714733173557,-6.71,-2.56,11.40,2.29,-1.96,1.16
37,1714733173591,-5.85,-2.64,10.69,2.34,-2.34,1.10
37,1714733173622,-5.44,-2.35,10.56,2.56,-2.49,1.00
37,1714733173655,-5.42,-2.48,9.48,2.92,-2.44,1.06
37,1714733173687,-3.64,-1.39,8.56,3.14,-2.32,1.09
37,1714733173719,-3.81,-0.60,8.21,3.09,-2.19,1.03
37,1714733173752,-2.03,-0.33,6.83,3.25,-2.08,1.05
37,1714733173784,-1.87,0.99,6.75,3.23,-1.77,1.06
37,1714733173817,-3.90,1.08,6.95,3.00,-2.48,1.19
37,1714733173849,0.53,1.45,4.84,3.09,-2.66,1.27
37,1714733173881,2.53,2.54,3.73,3.13,-1.56,1.14
37,1714733173915,1.01,3.43,3.19,2.84,-1.30,1.08
37,1714733173948,2.46,4.66,1.84,2.50,-1.91,1.22
37,1714733173981,4.87,5.39,0.05,2.06,-1.59,1.10
37,1714733174014,6.47,6.12,-0.77,1.65,-0.75,0.82
37,1714733174046,6.21,6.92,-1.15,1.16,-0.41,0.64
37,1714733174079,7.36,6.86,-1.80,0.61,-0.26,0.39
37,1714733174112,7.90,7.23,-2.42,0.12,0.39,0.08
37,1714733174146,7.35,6.89,-1.21,-0.43,0.80,-0.25
37,1714733174179,7.41,5.93,0.32,-0.83,0.83,-0.54
37,1714733174212,6.93,5.63,1.20,-1.08,1.14,-0.86
37,1714733174244,6.50,5.14,2.57,-1.43,1.12,-1.23
37,1714733174277,6.14,4.27,1.61,-1.47,1.65,-1.60
37,1714733174309,3.19,4.49,2.39,-1.67,2.52,-1.82
37,1714733174342,1.15,3.31,4.85,-2.35,1.65,-2.00
37,1714733174375,1.77,1.74,3.01,-2.34,2.47,-2.20
37,1714733174408,-3.39,2.08,5.26,-2.68,3.00,-2.14
37,1714733174442,-4.99,-0.27,7.34,-3.26,1.32,-2.08
37,1714733174475,-3.07,-1.33,5.54,-2.97,2.19,-1.89
37,1714733174507,-5.87,-1.04,8.98,-3.22,2.59,-1.85
37,1714733174540,-7.16,-2.07,9.01,-3.42,1.10,-1.78
37,1714733174595,-7.67,-3.19,9.51,-3.40,1.05,-1.46
37,1714733174628,-6.81,-3.47,12.77,-3.71,0.64,-1.19
37,1714733174661,-3.90,-5.06,11.47,-2.88,1.45,-1.19
37,1714733174694,-7.17,-4.47,12.56,-2.32,2.18,-0.92
37,1714733174726,-7.15,-5.43,15.34,-2.50,0.97,-0.93
37,1714733174759,-4.67,-6.73,13.51,-1.47,1.29,-0.99
38,1714733177826,-5.86,-4.29,6.89,0.19,-0.03,0.01
38,1714733177859,-5.62,-4.29,7.25,0.18,0.01,-0.02
38,1714733177892,-5.59,-4.28,7.58,0.20,0.01,-0.05
38,1714733177925,-5.81,-4.10,7.42,0.22,0.04,-0.07
38,1714733177959,-5.83,-3.91,7.21,0.22,0.05,-0.06
38,1714733177992,-6.33,-3.79,7.51,0.21,0.02,-0.04
38,1714733178026,-6.09,-3.90,7.11,0.14,-0.03,-0.03
38,1714733178059,-5.84,-4.30,6.98,0.09,-0.07,-0.02
38,1714733178091,-5.74,-4.33,7.57,0.05,-0.07,-0.04
38,1714733178125,-5.43,-4.58,7.51,0.02,-0.01,-0.05
38,1714733178158,-5.91,-4.26,7.55,-0.02,0.01,-0.08
38,1714733178192,-6.14,-4.02,8.53,-0.14,-0.01,-0.06
38,1714733178225,-7.77,-4.30,8.60,-0.09,0.07,-0.12
38,1714733178258,-8.41,-4.94,10.32,-0.21,-0.37,0.17
38,1714733178291,-8.71,-6.10,11.66,0.10,-0.96,0.47
38,1714733178324,-7.06,-6.29,13.35,1.07,-1.16,0.65
38,1714733178356,-6.98,-5.78,13.58,1.48,-0.48,0.82
38,1714733178389,-8.33,-5.21,13.81,1.73,-0.76,0.94
38,1714733178422,-7.72,-4.98,12.68,2.10,-1.26,1.08
38,1714733178455,-6.85,-3.83,12.03,2.43,-1.37,1.12
38,1714733178488,-7.70,-3.22,11.57,2.46,-1.43,1.14
38,1714733178520,-7.48,-2.81,10.87,2.60,-1.78,1.20
38,1714733178553,-6.47,-2.26,9.72,2.88,-1.83,1.32
38,1714733178587,-5.55,-1.27,8.94,2.96,-1.69,1.34
38,1714733178620,-5.90,-0.79,8.25,2.88,-1.91,1.38
38,1714733178652,-5.09,-0.20,7.54,2.83,-2.17,1.51
38,1714733178686,-4.07,-0.03,7.23,2.80,-2.43,1.52
38,1714733178719,-2.69,0.49,6.60,2.84,-2.35,1.50
38,1714733178751,-1.80,0.97,6.48,2.86,-2.06,1.51
38,1714733178784,-0.68,1.48,6.09,3.05,-1.92,1.49
38,1714733178817,-0.30,1.85,5.41,2.96,-1.94,1.44
38,1714733178850,0.47,2.29,4.08,2.90,-1.79,1.34
38,1714733178882,2.59,3.13,3.01,2.87,-1.55,1.31
38,1714733178915,2.54,4.48,1.75,2.50,-1.63,1.24
38,1714733178949,5.65,5.63,-0.13,2.15,-1.10,1.09
38,1714733178981,5.93,6.53,-1.06,1.71,-0.61,0.87
38,1714733179014,7.27,7.20,-1.89,1.14,-0.38,0.60
38,1714733179046,7.39,7.41,-2.85,0.52,-0.00,0.25
38,1714733179078,7.46,7.62,-2.88,-0.10,0.60,-0.10
38,1714733179110,6.67,6.53,-1.09,-0.70,0.79,-0.44
38,1714733179143,6.85,5.25,-0.05,-1.17,0.80,-0.84
38,1714733179176,5.98,4.99,-0.63,-1.45,1.54,-1.25
