Group_id,Time(ms),AccelX,AccelY,AccelZ,GyroX,GyroY,GyroZ
1,1714685934824,-3.26,0.76,10.44,0.25,-0.63,0.48
1,1714685934857,-4.81,0.77,10.98,0.27,-0.65,0.56
1,1714685934889,-3.30,0.87,10.41,0.29,-0.74,0.82
1,1714685934921,-4.62,0.25,10.69,0.23,-0.66,1.10
1,1714685934954,-5.22,-0.52,11.05,0.22,-0.87,1.38
1,1714685934987,-2.38,0.80,10.26,0.20,-0.85,1.66
1,1714685935019,-1.65,0.09,11.14,-0.32,-0.59,1.68
1,1714685935051,0.53,0.45,9.28,-0.15,-0.13,1.58
1,1714685935085,-1.42,1.34,10.56,0.35,-0.54,1.44
1,1714685935117,3.46,1.54,10.51,0.12,-0.39,1.33
1,1714685935150,1.32,1.99,11.37,-0.43,-0.03,0.97
1,1714685935182,1.91,1.36,9.98,-0.53,-0.06,0.60
1,1714685935214,4.61,-3.12,7.28,-0.42,0.49,0.10
1,1714685935247,-0.57,1.86,11.71,-0.12,0.03,0.16
1,1714685935279,2.10,1.08,11.12,0.06,0.01,0.25
1,1714685935312,-0.37,0.32,11.71,0.08,-0.33,0.05
1,1714685935345,-0.22,2.59,10.21,0.01,0.19,0.34
1,1714685935377,0.19,1.08,10.00,0.17,0.21,0.06
1,1714685935411,-0.95,0.49,10.30,0.04,0.10,0.08
1,1714685935443,0.24,0.32,10.47,0.05,-0.30,0.05
1,1714685935476,0.76,1.71,9.94,0.18,-0.13,0.05
1,1714685935509,0.01,1.02,11.17,0.26,0.15,0.21
1,1714685935541,-0.34,0.37,11.09,0.18,0.48,0.23
1,1714685935574,-0.42,0.53,10.54,0.13,0.42,0.12
1,1714685935607,-0.48,0.85,10.40,0.16,0.47,0.21
1,1714685935639,-0.57,0.46,11.01,0.17,0.37,0.22
1,1714685935672,-0.52,0.88,10.90,0.08,0.28,0.23
1,1714685935704,-0.70,0.76,11.20,0.09,0.12,0.21
1,1714685935737,-0.20,0.79,10.92,0.13,0.19,0.10
1,1714685935770,-1.22,0.28,10.82,0.09,0.14,0.10
1,1714685935802,-0.56,0.79,10.76,0.05,0.10,0.03
1,1714685935834,-0.85,0.05,10.46,0.02,-0.09,-0.19
1,1714685935868,-0.35,0.42,10.58,0.07,-0.10,-0.13
1,1714685935899,-0.71,0.16,10.50,0.07,-0.33,-0.23
1,1714685935932,-0.68,0.58,10.76,0.05,-0.13,-0.10
1,1714685935964,-0.79,0.69,10.90,0.05,-0.00,0.10
1,1714685935998,-0.48,-0.01,10.79,-0.02,-0.10,-0.19
1,1714685936030,-0.48,0.16,10.59,-0.04,-0.05,-0.14
1,1714685936062,-0.89,-0.35,11.13,0.09,0.00,-0.05
1,1714685936095,-0.90,0.13,10.85,-0.06,-0.03,-0.35
1,1714685936129,-0.65,-0.10,10.64,-0.05,0.06,-0.39
1,1714685936162,-1.14,-0.42,11.03,0.04,-0.08,-0.27
1,1714685936193,-0.38,-0.36,10.81,-0.01,-0.01,-0.30
1,1714685936226,-1.12,-0.70,10.73,0.19,-0.21,-0.17
1,1714685936258,-0.04,-1.12,10.44,0.22,-0.18,-0.49
1,1714685936292,-0.44,-1.48,10.71,0.44,0.39,-0.24
1,1714685936323,-4.57,-2.01,11.05,0.95,0.50,1.26
1,1714685936355,-2.07,6.90,11.47,0.05,-1.40,0.95
1,1714685936388,-0.60,-1.20,10.59,-0.10,-0.34,-0.03
1,1714685936421,-0.67,0.82,11.40,-0.12,1.20,0.23
1,1714685936453,-1.70,0.51,12.61,0.05,-0.22,0.02
1,1714685936486,-0.34,-0.03,11.43,0.14,-0.43,-0.15
1,1714685936519,-1.02,-0.46,11.27,0.22,-0.55,-0.18
1,1714685936551,-0.63,-0.07,10.79,0.26,-0.35,-0.11
1,1714685936583,-0.19,-0.24,10.76,0.31,-0.21,-0.04
1,1714685936616,0.61,-0.14,11.02,0.27,0.28,0.01
1,1714685936648,-2.67,0.44,11.56,0.36,-0.22,-0.03
1,1714685936681,0.74,0.49,9.50,0.27,0.02,-0.09
1,1714685936713,0.37,-0.15,11.22,0.27,-0.86,-0.28
1,1714685936745,0.22,-0.18,9.88,0.22,0.07,-0.01
1,1714685936778,-0.91,-0.04,11.03,0.20,0.19,0.42
1,1714685936811,0.73,0.48,9.45,0.14,0.08,0.41
1,1714685936845,1.12,0.45,12.13,0.13,0.55,0.76
1,1714685936877,0.00,-0.35,10.93,0.19,0.80,0.74
2,1714685939910,-0.03,-0.12,10.91,0.17,0.82,0.07
2,1714685939943,0.57,-1.20,10.95,0.21,0.29,-0.41
2,1714685939977,-0.74,-0.41,11.30,0.30,0.71,-0.73
2,1714685940009,-3.85,0.32,10.42,0.25,-0.17,-0.10
2,1714685940042,0.30,1.75,9.53,0.14,-0.98,-0.09
2,1714685940074,0.04,-0.54,11.05,0.10,0.22,-0.17
2,1714685940107,-0.17,-0.40,10.98,0.26,-0.22,0.03
2,1714685940140,-1.04,-0.03,10.90,0.16,-0.38,-0.08
2,1714685940172,1.14,-0.44,10.05,0.21,-0.37,-0.09
2,1714685940204,-0.30,-0.45,10.57,0.34,0.12,0.42
2,1714685940237,-0.02,0.83,10.15,0.29,0.23,-0.12
2,1714685940269,0.40,-0.59,11.00,0.21,0.68,0.07
2,1714685940302,-1.25,0.58,10.35,0.23,0.25,0.30
2,1714685940334,-2.71,0.39,10.27,-0.02,-0.26,0.47
2,1714685940368,-0.10,-0.34,10.30,-0.12,-0.59,0.18
2,1714685940401,0.63,-0.44,10.98,-0.06,-0.07,0.06
2,1714685940433,-0.90,-0.43,11.40,0.03,0.05,-0.08
2,1714685940465,-0.05,-0.58,11.88,0.08,0.25,-0.43
2,1714685940497,-0.27,-0.67,12.08,0.29,-0.08,-0.85
2,1714685940530,-1.47,-0.49,11.48,0.35,-0.12,-0.03
2,1714685940564,0.90,0.11,10.86,0.36,-0.28,0.16
2,1714685940597,0.91,-0.22,10.55,0.40,0.47,0.11
2,1714685940630,-1.32,-0.17,10.44,0.28,0.18,-0.13
2,1714685940663,-0.23,-0.99,10.92,0.11,-0.62,-0.26
2,1714685940697,-1.41,-0.75,10.77,0.13,-1.21,0.01
2,1714685940730,0.44,0.62,10.51,0.14,-0.51,-0.17
2,1714685940763,0.25,-0.28,10.80,0.11,0.11,0.04
2,1714685940796,-0.61,0.17,10.64,0.06,-0.20,0.31
2,1714685940829,0.49,-0.10,11.11,0.03,-0.08,0.23
2,1714685940863,1.30,-0.97,10.69,0.09,0.00,0.43
2,1714685940896,-1.59,-1.13,11.55,0.02,-0.28,1.14
2,1714685940930,0.83,-0.51,11.17,0.02,-0.67,1.00
2,1714685940963,2.29,-0.21,10.46,0.20,-0.15,0.48
2,1714685940996,1.27,-0.17,10.79,0.29,0.17,-0.00
2,1714685941029,0.15,-0.15,11.48,0.23,0.17,-0.10
2,1714685941063,0.82,-0.92,12.07,0.33,0.33,-0.15
2,1714685941096,8.21,-0.06,11.13,0.70,1.60,-2.51
2,1714685941129,-16.58,2.00,8.31,0.47,0.51,-1.79
2,1714685941162,0.40,0.79,10.51,0.21,0.09,0.25
2,1714685941196,0.73,0.18,9.63,0.17,-0.23,-0.07
2,1714685941229,0.14,-0.67,11.27,0.22,0.22,-0.27
2,1714685941262,-2.67,0.61,10.37,0.30,-0.13,-0.35
2,1714685941295,-0.09,-0.75,10.94,0.20,-0.08,0.19
2,1714685941329,-1.36,-0.51,10.31,0.14,0.18,0.23
2,1714685941362,1.02,-0.22,10.85,0.14,0.01,0.02
2,1714685941395,-0.12,-0.40,10.59,0.04,0.02,-0.40
2,1714685941429,-1.05,0.12,10.79,-0.03,0.02,-0.21
2,1714685941463,0.34,-0.11,10.70,0.12,0.17,-0.13
2,1714685941496,1.07,-0.95,11.27,0.04,0.30,-0.04
2,1714685941529,-2.96,-2.01,13.13,-0.05,-0.03,-0.28
2,1714685941561,0.71,-1.32,12.22,0.40,0.86,0.06
2,1714685941594,1.54,-1.92,10.86,0.33,0.22,-0.23
2,1714685941627,0.68,-1.28,10.72,0.52,0.62,-0.35
2,1714685941661,-0.21,-1.05,11.05,0.52,0.43,-0.40
2,1714685941694,0.64,-0.67,9.72,0.35,0.45,-0.52
2,1714685941728,1.07,-0.55,9.21,0.39,0.65,-0.62
2,1714685941761,0.80,-0.36,9.62,0.48,0.91,-0.74
2,1714685941793,-1.08,-0.36,9.19,0.20,0.99,-0.95
2,1714685941826,-1.82,-0.40,10.14,0.15,0.11,-0.91
2,1714685941859,-0.26,-0.80,10.52,0.33,0.20,-1.02
2,1714685941892,-2.94,-0.67,11.19,0.28,0.20,-1.15
2,1714685941925,-2.88,-0.82,11.40,0.27,-0.56,-1.10
2,1714685941959,-0.41,-0.62,11.06,0.52,-0.01,-1.12
2,1714685941992,-2.51,-0.34,11.06,0.67,0.80,-1.17
3,1714685945025,-4.12,0.26,11.11,0.54,0.31,-1.05
3,1714685945058,-2.61,0.16,10.32,0.48,0.10,-0.90
3,1714685945091,-3.08,0.55,10.48,0.54,0.43,-0.80
3,1714685945124,-4.04,0.39,10.28,0.44,0.18,-0.67
3,1714685945158,-2.40,0.57,9.68,0.40,-0.01,-0.57
3,1714685945191,-2.00,0.45,9.97,0.45,0.33,-0.56
3,1714685945223,-3.27,0.71,10.40,0.45,0.26,-0.50
3,1714685945256,-2.72,0.82,10.41,0.44,0.22,-0.45
3,1714685945290,-2.41,0.56,10.77,0.50,0.45,-0.43
3,1714685945322,-3.65,0.63,11.00,0.53,0.32,-0.34
3,1714685945354,-3.41,1.00,10.78,0.50,0.13,-0.19
3,1714685945387,-3.10,1.14,10.94,0.42,0.28,-0.07
3,1714685945419,-3.78,1.17,11.00,0.33,0.07,0.04
3,1714685945453,-2.61,0.96,10.65,0.19,-0.14,0.10
3,1714685945484,-1.88,0.72,10.65,0.22,0.07,0.11
3,1714685945517,-3.12,0.47,11.04,0.27,0.10,0.09
3,1714685945549,-2.38,0.65,10.34,0.26,-0.09,0.10
3,1714685945582,-2.21,1.02,10.24,0.34,0.18,0.08
3,1714685945614,-4.49,1.11,10.36,0.36,-0.02,0.15
3,1714685945646,-3.15,1.05,9.87,0.29,-0.30,0.24
3,1714685945679,-2.44,1.00,9.64,0.34,0.13,0.23
3,1714685945712,-4.53,0.80,10.22,0.42,0.25,0.34
3,1714685945744,-3.76,0.74,10.26,0.43,0.06,0.47
3,1714685945776,-2.22,0.51,9.69,0.40,0.19,0.50
3,1714685945809,-2.22,0.75,9.73,0.47,0.19,0.44
3,1714685945842,-1.13,0.88,9.90,0.39,0.11,0.32
3,1714685945874,-1.91,0.85,9.91,0.37,0.17,0.27
3,1714685945907,-2.39,0.08,9.95,0.78,0.40,0.33
3,1714685945939,-3.21,1.28,10.59,0.60,0.34,0.31
3,1714685945971,-3.93,1.98,9.60,0.41,0.24,0.37
3,1714685946004,-4.00,1.93,9.23,0.37,0.29,0.51
3,1714685946037,-4.04,1.89,9.59,0.16,0.25,0.58
3,1714685946069,-2.94,1.67,9.82,-0.05,0.08,0.58
3,1714685946101,-1.98,1.21,9.84,-0.07,0.04,0.52
3,1714685946133,-1.51,1.02,10.15,-0.09,0.02,0.42
3,1714685946166,-1.66,1.05,10.46,-0.05,0.14,0.30
3,1714685946198,-2.28,1.36,10.62,-0.02,0.16,0.17
3,1714685946230,-2.58,1.46,10.69,-0.09,0.04,0.12
3,1714685946262,-2.43,1.30,10.46,-0.05,0.07,0.09
3,1714685946295,-2.72,1.75,10.63,0.02,0.03,0.08
3,1714685946328,-2.43,1.92,10.61,-0.01,-0.04,0.05
3,1714685946361,-2.52,1.84,9.78,0.03,0.16,-0.01
3,1714685946394,-3.01,1.74,10.15,0.03,0.11,0.03
3,1714685946426,-2.18,1.60,10.12,-0.06,0.00,0.01
3,1714685946459,-1.94,1.31,9.85,-0.10,0.14,-0.08
3,1714685946491,-2.85,0.35,11.04,0.04,0.06,-0.13
3,1714685946524,-2.47,1.32,10.61,0.07,0.16,-0.22
3,1714685946556,-2.79,0.57,10.03,0.10,0.25,-0.27
3,1714685946589,-3.06,0.18,9.89,0.15,0.13,-0.27
3,1714685946621,-2.81,0.30,10.24,0.14,0.22,-0.34
3,1714685946653,-4.19,-0.11,10.01,0.16,0.37,-0.30
3,1714685946686,-4.60,-0.17,10.80,0.21,0.09,-0.12
3,1714685946718,-3.66,0.52,10.01,0.19,0.03,-0.04
3,1714685946750,-3.38,0.79,9.95,0.11,-0.02,0.02
3,1714685946783,-3.04,0.70,10.14,0.04,-0.05,0.06
3,1714685946815,-3.14,0.76,10.49,0.09,0.03,0.04
3,1714685946847,-3.51,1.11,10.50,0.15,0.06,0.00
3,1714685946880,-3.84,0.93,10.27,0.18,-0.03,-0.00
3,1714685946912,-3.38,0.94,10.01,0.19,-0.03,0.02
3,1714685946945,-3.31,0.95,9.96,0.14,0.01,0.01
3,1714685946978,-3.34,0.83,10.07,0.12,-0.03,0.02
3,1714685947010,-3.26,0.94,9.89,0.10,-0.03,-0.00
3,1714685947042,-3.24,0.68,10.62,0.16,-0.05,0.02
3,1714685947075,-3.16,0.82,9.91,0.16,0.01,0.00
4,1714685950108,-3.07,0.76,9.97,0.12,-0.09,-0.06
4,1714685950140,-3.34,0.68,10.32,0.12,-0.04,-0.02
4,1714685950173,-2.74,0.53,10.02,0.14,-0.03,0.02
4,1714685950205,-2.98,0.63,10.21,0.11,-0.05,-0.00
4,1714685950237,-2.88,0.55,10.26,0.19,0.07,-0.04
4,1714685950269,-3.19,0.63,10.13,0.18,0.01,-0.02
4,1714685950302,-3.12,0.70,10.07,0.18,0.01,0.00
4,1714685950335,-3.04,0.74,10.03,0.18,0.03,-0.02
4,1714685950367,-3.17,0.60,10.35,0.18,0.04,-0.04
4,1714685950400,-3.15,0.76,10.08,0.22,0.05,-0.03
4,1714685950432,-3.22,0.68,10.13,0.22,0.05,-0.03
4,1714685950465,-3.07,0.68,10.13,0.23,0.04,-0.04
4,1714685950497,-3.26,0.66,10.36,0.28,0.04,-0.05
4,1714685950529,-2.90,0.79,10.01,0.25,0.02,-0.07
4,1714685950562,-3.54,0.73,10.42,0.24,0.05,-0.07
4,1714685950595,-3.76,0.77,10.45,0.20,0.10,-0.03
4,1714685950627,-2.89,0.24,12.90,0.74,0.04,0.17
4,1714685950659,-0.74,1.16,2.69,0.30,0.02,-0.25
4,1714685950691,-2.49,0.36,11.73,0.07,-0.15,0.04
4,1714685950724,-2.79,0.75,11.24,0.10,-0.08,0.10
4,1714685950756,-2.77,0.71,9.78,0.21,0.10,-0.06
4,1714685950789,-3.35,0.74,10.20,0.15,0.04,-0.08
4,1714685950821,-3.49,0.73,10.14,0.16,0.05,-0.05
4,1714685950854,-3.05,0.64,10.24,0.19,0.02,-0.05
4,1714685950886,-3.05,0.64,10.13,0.19,0.06,-0.03
4,1714685950919,-3.24,0.72,10.07,0.19,0.10,-0.01
4,1714685950952,-3.18,0.67,10.18,0.19,0.11,-0.01
4,1714685950985,-3.30,0.68,10.15,0.21,0.12,-0.01
4,1714685951017,-3.32,0.64,10.06,0.19,0.11,-0.01
4,1714685951051,-3.32,0.61,10.00,0.18,0.10,-0.00
4,1714685951083,-3.38,0.59,10.14,0.18,0.11,0.02
4,1714685951115,-3.33,0.69,10.07,0.19,0.11,0.03
4,1714685951148,-3.50,0.75,10.09,0.18,0.10,0.02
4,1714685951180,-3.69,0.75,9.98,0.18,0.07,0.02
4,1714685951213,-3.47,0.85,9.89,0.18,0.04,0.03
4,1714685951246,-3.46,0.73,10.12,0.21,0.06,0.03
4,1714685951278,-3.56,0.75,9.84,0.21,0.06,0.03
4,1714685951311,-3.46,0.63,9.93,0.19,0.06,0.05
4,1714685951344,-3.35,0.77,10.15,0.24,0.12,0.03
4,1714685951377,-3.47,0.79,9.80,0.20,0.00,-0.01
4,1714685951409,-3.64,0.78,9.95,0.16,-0.01,-0.02
4,1714685951441,-3.34,0.64,10.13,0.16,-0.00,-0.02
4,1714685951473,-3.33,0.74,9.84,0.16,-0.01,-0.04
4,1714685951506,-3.49,0.71,9.96,0.17,-0.02,-0.04
4,1714685951538,-3.46,0.67,10.10,0.17,-0.00,-0.04
4,1714685951571,-3.47,0.77,10.08,0.19,0.02,-0.03
4,1714685951603,-3.45,0.76,10.05,0.19,-0.03,-0.03
4,1714685951635,-3.51,0.69,10.01,0.19,0.01,-0.03
4,1714685951668,-3.32,0.72,10.07,0.18,0.01,-0.03
4,1714685951700,-3.48,0.71,9.95,0.18,0.01,-0.04
4,1714685951732,-3.63,0.73,9.94,0.18,-0.00,-0.03
4,1714685951765,-3.39,0.63,10.00,0.18,-0.00,-0.04
4,1714685951799,-3.39,0.63,10.01,0.18,-0.01,-0.04
4,1714685951832,-3.45,0.61,10.08,0.18,-0.00,-0.04
4,1714685951865,-3.48,0.66,10.02,0.18,-0.02,-0.04
4,1714685951898,-3.42,0.64,10.11,0.18,-0.00,-0.04
4,1714685951931,-3.49,0.64,10.10,0.18,-0.02,-0.03
4,1714685951964,-3.48,0.58,10.12,0.19,0.01,-0.04
4,1714685951997,-3.31,0.55,10.12,0.19,0.00,-0.04
4,1714685952030,-3.33,0.56,10.14,0.19,0.00,-0.03
4,1714685952063,-3.39,0.62,10.08,0.19,0.01,-0.03
4,1714685952097,-3.34,0.62,10.11,0.21,0.03,-0.03
4,1714685952130,-3.37,0.65,10.05,0.20,0.01,-0.04
4,1714685952164,-3.43,0.69,9.96,0.19,-0.01,-0.03
5,1714685955199,-3.28,0.64,10.14,0.19,-0.00,-0.03
5,1714685955231,-3.42,0.62,10.05,0.19,0.03,-0.03
5,1714685955265,-3.54,0.60,9.98,0.15,-0.02,-0.00
5,1714685955298,-3.23,0.61,9.79,0.11,-0.05,-0.02
5,1714685955331,-3.71,0.66,9.82,0.10,-0.10,-0.15
5,1714685955364,-3.88,0.30,9.84,0.02,-0.28,-0.17
5,1714685955398,-3.37,0.11,10.42,-0.08,-0.38,-0.18
5,1714685955431,-2.56,0.02,10.67,-0.04,-0.28,-0.24
5,1714685955463,-3.75,-0.40,11.23,-0.08,-0.29,-0.25
5,1714685955496,-3.53,-0.56,10.55,-0.09,-0.62,-0.19
5,1714685955528,-3.64,0.45,10.30,-0.12,-0.53,-0.20
5,1714685955561,-2.72,-0.32,11.16,-0.27,-0.73,-0.13
5,1714685955594,-2.10,-0.84,10.52,-0.02,-0.55,-0.18
5,1714685955626,-1.76,-0.17,9.96,0.18,-0.09,-0.25
5,1714685955659,-1.82,-0.03,10.03,0.12,0.05,-0.28
5,1714685955692,-2.25,0.43,9.80,0.14,-0.07,-0.23
5,1714685955724,-1.45,0.79,9.59,0.13,0.06,-0.26
5,1714685955757,-1.09,0.08,9.74,0.21,0.23,-0.32
5,1714685955789,-1.27,0.15,9.78,0.44,0.54,-0.40
5,1714685955822,-1.87,0.26,9.82,0.45,0.61,-0.43
5,1714685955855,-3.30,0.06,10.10,0.58,0.60,-0.36
5,1714685955888,-3.88,0.40,10.17,0.43,0.25,-0.27
5,1714685955920,-2.66,-0.98,12.01,0.48,0.33,-0.24
5,1714685955952,-4.09,-0.10,12.17,0.54,0.12,-0.14
5,1714685955984,-2.49,0.35,9.99,0.52,0.14,-0.03
5,1714685956017,-2.29,0.02,10.32,0.34,0.10,-0.07
5,1714685956050,-2.90,-0.56,10.66,0.38,0.09,-0.08
5,1714685956082,-3.03,0.00,10.26,0.34,0.14,-0.08
5,1714685956115,-3.39,-0.52,10.19,0.30,-0.01,-0.05
5,1714685956147,-3.14,-0.08,10.24,0.28,-0.04,-0.06
5,1714685956180,-2.90,-0.11,10.23,0.25,-0.04,-0.05
5,1714685956212,-3.08,0.12,10.13,0.23,-0.10,-0.06
5,1714685956245,-3.08,0.21,10.18,0.22,-0.07,-0.07
5,1714685956277,-2.84,0.14,10.09,0.21,-0.04,-0.08
5,1714685956310,-2.62,0.47,10.23,0.22,0.00,-0.09
5,1714685956342,-3.23,0.43,10.30,0.20,-0.03,-0.07
5,1714685956376,-2.95,0.19,10.26,0.20,-0.02,-0.05
5,1714685956408,-2.91,0.18,10.35,0.22,0.02,-0.06
5,1714685956440,-3.03,0.28,10.22,0.24,0.04,-0.06
5,1714685956472,-3.04,0.05,9.95,0.25,0.10,-0.07
5,1714685956504,-2.96,0.07,10.26,0.24,0.14,-0.09
5,1714685956537,-3.21,0.08,10.30,0.23,0.08,-0.05
5,1714685956570,-2.95,-0.06,10.19,0.26,0.14,-0.06
5,1714685956602,-3.24,0.44,10.22,0.24,0.12,-0.04
5,1714685956635,-2.60,0.41,10.21,0.21,0.10,-0.02
5,1714685956667,-2.62,0.25,10.21,0.22,0.14,-0.03
5,1714685956700,-3.03,0.67,10.15,0.21,0.16,-0.07
5,1714685956732,-3.63,0.35,10.08,0.18,0.05,-0.04
5,1714685956765,-2.82,0.39,10.07,0.15,0.01,-0.02
5,1714685956797,-2.88,0.22,10.46,0.18,0.10,-0.04
5,1714685956829,-3.33,0.32,10.01,0.18,0.06,-0.01
5,1714685956861,-3.09,0.35,10.24,0.19,0.06,0.01
5,1714685956894,-2.83,-0.93,10.41,0.11,-0.05,-0.03
5,1714685956926,-2.56,-0.91,10.42,0.12,0.02,-0.02
5,1714685956959,-2.56,-0.91,10.43,0.15,0.04,-0.04
5,1714685956991,-2.68,-0.97,10.38,0.14,-0.02,-0.04
5,1714685957024,-2.59,-1.02,10.27,0.14,-0.04,-0.03
5,1714685957057,-2.51,-1.06,10.31,0.15,0.05,-0.05
5,1714685957089,-2.61,-1.03,10.28,0.14,0.04,-0.05
5,1714685957121,-2.55,-1.12,10.30,0.11,-0.04,-0.05
5,1714685957153,-2.41,-1.14,10.22,0.11,0.03,-0.06
5,1714685957186,-2.69,-1.18,10.26,0.14,0.06,-0.06
5,1714685957218,-2.67,-1.22,10.38,0.13,-0.02,-0.04
5,1714685957251,-2.41,-1.18,10.42,0.14,0.03,-0.05
6,1714685960284,-2.77,-1.17,10.42,0.16,0.04,-0.05
6,1714685960317,-2.59,-1.16,10.43,0.16,-0.01,-0.03
6,1714685960349,-2.55,-1.19,10.18,0.16,0.04,-0.02
6,1714685960381,-2.49,-1.12,10.19,0.15,0.04,-0.02
6,1714685960413,-2.68,-1.18,10.19,0.13,0.01,-0.03
6,1714685960445,-2.51,-1.23,10.13,0.13,0.03,-0.03
6,1714685960478,-2.66,-1.18,10.22,0.12,0.05,-0.03
6,1714685960512,-2.60,-1.30,10.28,0.11,0.02,-0.02
6,1714685960545,-2.48,-1.23,10.09,0.10,0.07,-0.03
6,1714685960576,-2.75,-1.25,10.20,0.07,0.03,-0.02
6,1714685960609,-2.52,-1.43,10.25,0.06,0.00,-0.02
6,1714685960642,-2.49,-1.42,10.04,0.06,0.07,-0.04
6,1714685960674,-2.68,-1.38,9.96,0.01,0.07,-0.04
6,1714685960706,-2.50,-1.50,10.16,-0.07,-0.04,-0.04
6,1714685960738,-2.28,-1.18,10.38,-0.18,-0.03,-0.05
6,1714685960771,-2.84,-0.80,11.82,-0.42,-0.22,0.02
6,1714685960803,-2.38,-0.86,13.86,-0.68,-0.55,0.15
6,1714685960835,-1.83,-2.29,16.25,-0.58,-0.49,0.19
6,1714685960867,-2.33,-3.42,18.08,-0.06,-0.43,0.18
6,1714685960900,-3.44,-4.02,18.07,0.71,-0.56,0.18
6,1714685960934,-3.62,-4.27,17.18,1.65,-0.84,0.29
6,1714685960966,-3.33,-3.71,15.27,2.46,-0.74,0.32
6,1714685960999,-3.24,-3.09,13.33,3.01,-0.53,0.37
6,1714685961032,-3.20,-2.81,11.37,3.57,-0.56,0.44
6,1714685961064,-3.71,-1.70,10.36,3.67,-1.00,0.52
6,1714685961097,-2.51,-1.17,8.77,3.62,-0.89,0.59
6,1714685961129,-2.35,-0.76,7.46,3.86,-0.54,0.67
6,1714685961162,-2.55,0.59,7.03,3.83,-1.05,0.88
6,1714685961195,-0.65,2.22,5.73,3.37,-0.99,0.80
6,1714685961228,-0.35,2.75,5.12,3.03,-0.93,0.75
6,1714685961260,1.77,3.83,3.89,2.87,-0.70,0.71
6,1714685961293,0.92,5.27,3.32,2.41,-0.71,0.65
6,1714685961325,3.20,5.79,1.77,1.90,-0.39,0.49
6,1714685961358,2.95,6.04,1.23,1.48,-0.22,0.36
6,1714685961391,3.89,6.19,-0.27,0.89,-0.04,0.11
6,1714685961424,3.14,6.66,-1.14,0.09,0.43,-0.23
6,1714685961457,2.44,6.31,-0.88,-0.76,0.48,-0.36
6,1714685961489,2.76,5.05,-0.73,-1.37,0.84,-0.58
6,1714685961522,2.11,3.85,1.03,-1.99,1.20,-0.93
6,1714685961555,1.14,3.01,1.94,-2.49,1.40,-1.24
6,1714685961587,-2.12,2.43,3.56,-3.00,1.66,-1.33
6,1714685961620,-2.53,1.55,6.25,-3.39,1.39,-1.21
6,1714685961653,-2.52,-0.35,7.03,-3.42,1.64,-1.23
6,1714685961685,-3.81,-0.48,11.60,-3.54,1.27,-1.36
6,1714685961717,-4.41,-1.06,12.90,-3.26,1.11,-1.44
6,1714685961750,-4.17,-1.44,14.36,-2.99,1.26,-1.26
6,1714685961782,-7.20,-2.10,15.86,-2.40,0.68,-1.00
6,1714685961814,-5.09,-2.10,16.44,-2.05,0.57,-0.87
6,1714685961847,-4.70,-2.66,16.31,-1.37,1.15,-0.68
6,1714685961881,-6.32,-2.16,14.97,-0.79,0.78,-0.54
6,1714685961912,-4.59,-1.99,14.19,-0.73,0.27,-0.44
6,1714685961946,-4.54,-2.32,13.27,-0.53,0.26,-0.33
6,1714685961978,-4.97,-2.53,11.92,-0.21,0.20,-0.15
6,1714685962010,-3.90,-2.30,11.97,-0.07,0.06,-0.00
6,1714685962043,-3.37,-2.50,11.28,0.12,0.09,-0.02
6,1714685962075,-3.88,-2.32,10.50,0.26,0.11,-0.04
6,1714685962109,-3.89,-2.26,10.24,0.28,0.02,-0.02
6,1714685962141,-3.71,-2.22,9.82,0.32,0.06,-0.02
6,1714685962173,-4.04,-2.22,9.63,0.32,0.06,-0.02
6,1714685962205,-4.08,-2.28,9.56,0.33,-0.04,0.01
6,1714685962238,-3.94,-2.42,9.38,0.32,0.00,0.03
6,1714685962270,-3.90,-2.40,9.18,0.32,0.07,0.03
6,1714685962302,-4.14,-2.23,9.25,0.28,-0.05,0.05
6,1714685962335,-3.71,-2.25,9.36,0.23,0.05,0.04
7,1714685965368,-3.77,-2.28,9.28,0.21,0.21,0.04
7,1714685965401,-4.37,-2.16,9.59,0.17,0.06,0.08
7,1714685965434,-4.00,-2.20,9.50,0.11,-0.11,0.09
7,1714685965467,-3.46,-2.31,9.59,0.11,-0.04,0.07
7,1714685965499,-3.83,-2.35,9.73,0.16,-0.01,0.05
7,1714685965532,-3.59,-2.32,9.58,0.17,-0.03,0.04
7,1714685965564,-3.78,-2.15,9.48,0.13,-0.01,0.01
7,1714685965596,-3.66,-2.20,9.51,0.09,-0.08,0.02
7,1714685965630,-3.69,-2.41,9.78,0.12,-0.07,-0.01
7,1714685965662,-3.73,-2.32,9.66,0.14,-0.00,-0.03
7,1714685965695,-3.81,-2.36,9.51,0.14,-0.01,-0.02
7,1714685965727,-3.79,-2.52,9.57,0.15,-0.04,-0.02
7,1714685965760,-4.00,-2.56,9.61,0.16,0.02,-0.03
7,1714685965792,-4.11,-2.42,9.62,0.18,0.02,-0.01
7,1714685965826,-3.86,-2.40,9.58,0.17,-0.04,0.01
7,1714685965858,-3.59,-2.36,9.37,0.15,-0.02,-0.01
7,1714685965889,-3.67,-2.24,9.51,0.12,0.01,-0.02
7,1714685965922,-3.78,-2.45,9.67,0.11,-0.02,-0.03
7,1714685965955,-3.69,-2.50,9.82,0.14,-0.04,-0.04
7,1714685965988,-3.70,-2.42,9.62,0.16,0.02,-0.05
7,1714685966021,-3.96,-2.46,9.67,0.21,0.02,-0.03
7,1714685966053,-3.93,-2.44,9.69,0.21,-0.00,-0.02
7,1714685966086,-3.90,-2.41,9.49,0.20,-0.01,-0.00
7,1714685966119,-3.79,-2.43,9.66,0.18,-0.03,-0.00
7,1714685966151,-3.81,-2.49,9.54,0.18,-0.07,0.01
7,1714685966183,-3.58,-2.44,9.52,0.19,-0.03,0.01
7,1714685966216,-3.51,-2.48,9.47,0.18,-0.00,-0.01
7,1714685966248,-3.55,-2.38,9.57,0.15,-0.02,-0.03
7,1714685966280,-3.72,-2.44,9.65,0.12,-0.03,-0.02
7,1714685966314,-3.84,-2.57,9.84,0.13,-0.02,-0.01
7,1714685966345,-3.86,-2.65,9.82,0.16,-0.05,0.00
7,1714685966377,-3.65,-2.59,9.70,0.18,-0.07,0.01
7,1714685966411,-3.51,-2.56,9.57,0.21,-0.02,0.01
7,1714685966443,-3.61,-2.56,9.56,0.20,-0.03,-0.00
7,1714685966475,-3.61,-2.51,9.58,0.19,-0.05,-0.01
7,1714685966509,-3.61,-2.49,9.56,0.18,-0.04,-0.01
7,1714685966541,-3.69,-2.59,9.50,0.18,-0.03,-0.01
7,1714685966573,-3.56,-2.59,9.56,0.17,-0.04,-0.02
7,1714685966605,-3.55,-2.65,9.56,0.17,-0.03,-0.02
7,1714685966638,-3.56,-2.66,9.71,0.19,-0.01,-0.02
7,1714685966671,-3.60,-2.64,9.65,0.21,0.02,-0.03
7,1714685966703,-3.41,-2.52,9.56,0.21,0.01,-0.05
7,1714685966735,-3.42,-2.46,9.46,0.18,0.00,-0.04
7,1714685966769,-3.54,-2.46,9.63,0.17,0.00,-0.04
7,1714685966801,-3.70,-2.49,9.71,0.16,0.01,-0.05
7,1714685966833,-3.54,-2.51,9.68,0.17,0.01,-0.04
7,1714685966866,-3.53,-2.59,9.86,0.18,0.01,-0.03
7,1714685966898,-3.55,-2.52,9.73,0.18,0.02,-0.03
7,1714685966930,-3.68,-2.48,9.77,0.16,-0.04,-0.01
7,1714685966963,-3.38,-2.58,9.63,0.17,-0.02,-0.00
7,1714685966996,-3.32,-2.55,9.59,0.16,0.02,-0.02
7,1714685967028,-3.48,-2.68,9.63,0.15,-0.02,-0.03
7,1714685967061,-3.40,-2.73,9.67,0.16,-0.02,-0.02
7,1714685967094,-3.42,-2.72,9.49,0.19,0.01,-0.03
7,1714685967126,-3.39,-2.64,9.58,0.18,0.01,-0.03
7,1714685967158,-3.48,-2.68,9.66,0.18,0.01,-0.03
7,1714685967191,-3.40,-2.71,9.78,0.19,0.00,-0.04
7,1714685967224,-3.40,-2.77,9.68,0.21,0.03,-0.05
7,1714685967256,-3.55,-2.76,9.66,0.22,0.03,-0.05
7,1714685967288,-3.59,-2.77,9.59,0.21,0.04,-0.04
7,1714685967320,-3.52,-2.68,9.57,0.19,0.02,-0.02
7,1714685967354,-3.61,-2.77,9.64,0.15,-0.00,-0.01
7,1714685967387,-3.48,-2.81,9.76,0.13,-0.02,-0.02
7,1714685967419,-3.38,-2.66,9.86,0.13,-0.03,-0.02
8,1714685970452,-3.31,-2.62,9.86,0.15,-0.05,-0.04
8,1714685970484,-3.28,-2.62,9.96,0.17,-0.03,-0.06
8,1714685970517,-3.56,-2.65,9.86,0.22,-0.00,-0.08
8,1714685970549,-3.88,-2.69,9.70,0.24,-0.02,-0.06
8,1714685970582,-3.57,-2.66,9.58,0.27,0.00,-0.04
8,1714685970615,-3.59,-2.66,9.60,0.28,0.03,-0.03
8,1714685970647,-3.48,-2.82,9.60,0.26,0.00,-0.02
8,1714685970681,-3.34,-2.68,9.48,0.27,0.03,-0.01
8,1714685970714,-3.23,-2.62,9.33,0.24,0.03,-0.03
8,1714685970748,-3.32,-2.66,9.44,0.21,0.02,-0.04
8,1714685970781,-3.23,-2.60,9.51,0.19,0.04,-0.05
8,1714685970814,-3.37,-2.60,9.59,0.17,0.05,-0.05
8,1714685970848,-3.32,-2.66,9.72,0.16,0.02,-0.05
8,1714685970881,-3.39,-2.61,9.77,0.16,0.01,-0.06
8,1714685970913,-3.24,-2.62,9.79,0.17,0.02,-0.05
8,1714685970946,-3.36,-2.68,9.80,0.19,0.04,-0.07
8,1714685970979,-3.47,-2.55,9.62,0.19,-0.00,-0.06
8,1714685971013,-3.42,-2.64,9.75,0.19,0.01,-0.06
8,1714685971044,-3.54,-2.64,9.66,0.18,0.00,-0.05
8,1714685971077,-3.53,-2.57,9.60,0.17,-0.00,-0.04
8,1714685971109,-3.43,-2.66,9.74,0.16,-0.03,-0.02
8,1714685971141,-3.30,-2.75,9.68,0.18,-0.02,-0.02
8,1714685971174,-3.36,-2.65,9.46,0.19,0.01,-0.03
8,1714685971207,-3.45,-2.60,9.40,0.16,0.01,-0.03
8,1714685971239,-3.41,-2.70,9.50,0.13,0.00,-0.03
8,1714685971272,-3.30,-2.91,9.57,0.14,0.02,-0.03
8,1714685971305,-3.42,-2.82,9.66,0.14,0.03,-0.03
8,1714685971337,-3.53,-2.77,9.71,0.16,0.03,-0.03
8,1714685971370,-3.47,-2.85,9.75,0.16,0.02,-0.02
8,1714685971403,-3.46,-2.89,9.79,0.17,0.03,-0.02
8,1714685971436,-3.34,-2.94,9.72,0.19,0.04,-0.02
8,1714685971469,-3.28,-2.94,9.82,0.19,0.03,-0.02
8,1714685971501,-3.38,-2.89,9.77,0.20,0.03,-0.02
8,1714685971534,-3.27,-2.90,9.75,0.20,0.03,-0.03
8,1714685971566,-3.27,-2.84,9.67,0.19,0.02,-0.04
8,1714685971599,-3.24,-2.77,9.67,0.17,0.02,-0.05
8,1714685971632,-3.41,-2.86,9.77,0.17,-0.02,-0.05
8,1714685971665,-3.47,-2.82,9.67,0.18,0.01,-0.04
8,1714685971697,-3.68,-2.70,9.59,0.18,-0.02,-0.03
8,1714685971729,-3.43,-2.74,9.62,0.14,-0.04,-0.00
8,1714685971762,-3.41,-2.72,9.70,0.10,-0.08,0.01
8,1714685971794,-3.66,-2.44,10.24,-0.04,-0.18,0.06
8,1714685971827,-4.17,-2.49,13.71,-0.26,-0.41,0.17
8,1714685971860,-4.28,-3.32,17.54,-0.38,-0.63,0.36
8,1714685971893,-3.31,-5.49,19.61,0.23,-1.18,0.44
8,1714685971925,-3.24,-6.79,19.61,1.55,-1.16,0.32
8,1714685971957,-3.13,-5.84,17.85,2.79,-0.93,0.28
8,1714685971990,-4.70,-5.26,14.80,3.51,-1.02,0.39
8,1714685972022,-5.22,-4.18,12.43,4.01,-1.45,0.51
8,1714685972054,-4.03,-3.23,9.87,4.21,-1.44,0.65
8,1714685972087,-4.98,-2.59,9.30,4.36,-1.55,0.78
8,1714685972119,-3.38,-2.01,7.02,4.33,-1.85,0.86
8,1714685972151,-1.42,-0.41,4.79,4.37,-1.04,0.97
8,1714685972184,-1.67,0.95,4.18,4.06,-0.88,1.04
8,1714685972217,-0.42,1.54,3.14,3.63,-1.34,1.03
8,1714685972249,0.81,2.56,2.93,3.31,-1.19,0.99
8,1714685972282,2.88,4.35,0.50,2.81,-0.59,0.80
8,1714685972315,2.03,5.22,0.95,2.35,-0.48,0.73
8,1714685972348,4.26,6.28,-0.68,1.71,-0.44,0.57
8,1714685972380,4.98,6.97,-2.14,0.95,0.01,0.22
8,1714685972413,4.82,7.09,-1.72,0.17,0.28,-0.11
8,1714685972445,5.03,7.05,-1.29,-0.52,0.63,-0.48
8,1714685972478,4.09,6.54,-0.21,-1.28,0.89,-0.89
8,1714685972510,3.54,5.28,1.20,-1.71,1.00,-1.18
9,1714685975545,1.38,5.46,1.30,-2.15,1.53,-1.37
9,1714685975578,0.73,4.29,3.14,-3.09,1.49,-1.50
9,1714685975612,0.53,2.89,3.02,-3.30,1.93,-1.70
9,1714685975645,-2.25,1.70,4.67,-3.37,1.96,-1.51
9,1714685975678,-2.82,0.78,7.91,-4.13,1.33,-1.41
9,1714685975711,-4.18,-0.58,10.24,-4.37,1.05,-1.88
9,1714685975745,-4.98,-2.27,11.35,-4.37,0.35,-1.63
9,1714685975778,-1.56,-3.58,13.40,-4.37,0.47,-1.35
9,1714685975811,-5.59,-5.53,13.54,-3.93,2.51,-1.53
9,1714685975844,-8.08,-7.72,17.37,-2.80,0.43,-0.99
9,1714685975877,-3.95,-5.55,15.93,-1.98,0.70,-0.59
9,1714685975910,-5.12,-5.63,13.66,-1.39,1.13,-0.69
9,1714685975943,-7.08,-5.94,14.32,-0.87,0.34,-0.34
9,1714685975976,-4.35,-5.66,13.44,-0.28,-0.01,-0.05
9,1714685976009,-3.77,-5.10,11.83,0.04,0.38,-0.09
9,1714685976043,-4.46,-4.63,11.11,0.21,0.32,0.06
9,1714685976076,-3.92,-4.38,10.32,0.26,0.04,0.11
9,1714685976109,-3.30,-4.45,9.74,0.32,-0.00,0.07
9,1714685976142,-3.69,-4.07,9.52,0.30,-0.09,0.06
9,1714685976175,-3.24,-4.12,8.80,0.26,-0.09,0.07
9,1714685976208,-3.38,-4.39,9.31,0.33,-0.07,0.03
9,1714685976240,-3.64,-4.10,8.99,0.35,-0.01,0.04
9,1714685976273,-3.56,-3.86,8.44,0.27,-0.02,0.01
9,1714685976305,-3.27,-3.97,8.45,0.28,0.03,0.03
9,1714685976337,-3.90,-3.94,9.10,0.28,-0.01,0.02
9,1714685976370,-3.51,-3.96,8.87,0.21,-0.05,0.01
9,1714685976402,-3.46,-4.00,8.76,0.22,-0.03,0.02
9,1714685976434,-3.56,-4.05,9.11,0.26,-0.04,0.03
9,1714685976466,-3.50,-3.96,9.16,0.21,-0.02,-0.01
9,1714685976499,-3.60,-4.01,9.08,0.21,-0.07,0.01
9,1714685976532,-3.65,-4.00,9.16,0.22,-0.04,0.00
9,1714685976564,-3.32,-3.97,9.13,0.22,-0.07,0.02
9,1714685976596,-3.52,-4.10,9.19,0.19,-0.11,0.03
9,1714685976629,-3.35,-4.08,9.03,0.18,-0.02,0.00
9,1714685976661,-3.17,-4.16,9.20,0.18,-0.07,0.01
9,1714685976694,-3.41,-4.05,9.22,0.19,-0.05,-0.01
9,1714685976727,-3.15,-4.04,9.18,0.20,-0.03,-0.02
9,1714685976759,-3.23,-4.13,9.06,0.21,-0.03,-0.02
9,1714685976791,-3.60,-4.03,9.20,0.21,-0.03,-0.03
9,1714685976825,-3.23,-4.09,9.00,0.21,-0.02,-0.03
9,1714685976857,-3.30,-4.07,8.96,0.21,-0.01,-0.02
9,1714685976890,-3.59,-4.01,9.03,0.20,0.02,-0.04
9,1714685976922,-3.18,-3.90,8.97,0.18,0.02,-0.04
9,1714685976956,-3.22,-4.02,9.04,0.17,-0.01,-0.03
9,1714685976987,-3.39,-4.09,9.10,0.19,0.03,-0.05
9,1714685977020,-3.36,-4.03,9.19,0.19,0.01,-0.04
9,1714685977052,-3.20,-3.94,9.11,0.19,0.05,-0.05
9,1714685977084,-3.47,-4.04,9.21,0.18,0.02,-0.04
9,1714685977116,-3.53,-4.09,9.17,0.19,0.03,-0.04
9,1714685977150,-3.44,-4.09,9.11,0.19,0.04,-0.03
9,1714685977183,-3.32,-4.07,8.94,0.20,0.03,-0.01
9,1714685977215,-3.32,-4.06,9.03,0.19,0.06,-0.01
9,1714685977248,-3.40,-3.91,9.01,0.16,0.01,-0.02
9,1714685977280,-3.25,-4.12,9.24,0.15,0.01,-0.04
9,1714685977313,-3.26,-4.03,9.29,0.17,0.05,-0.04
9,1714685977345,-3.48,-4.06,9.31,0.19,0.03,-0.03
9,1714685977379,-3.42,-4.11,9.27,0.20,0.02,-0.02
9,1714685977411,-3.22,-4.14,9.39,0.20,0.02,-0.02
9,1714685977443,-3.32,-4.14,9.24,0.21,0.05,-0.04
9,1714685977476,-3.28,-4.10,9.15,0.23,0.03,-0.04
9,1714685977508,-3.27,-4.09,9.13,0.21,0.02,-0.05
9,1714685977541,-3.34,-3.94,9.10,0.19,0.04,-0.06
9,1714685977574,-3.42,-4.04,9.06,0.19,0.03,-0.06
9,1714685977607,-3.56,-4.03,9.09,0.19,0.01,-0.06
10,1714685980639,-3.45,-4.13,9.12,0.19,0.03,-0.05
10,1714685980672,-3.52,-4.07,9.01,0.20,0.06,-0.05
10,1714685980705,-3.60,-4.09,9.10,0.20,0.02,-0.02
10,1714685980738,-3.39,-4.09,9.10,0.20,0.03,-0.01
10,1714685980771,-3.31,-4.01,9.06,0.19,0.04,-0.01
10,1714685980803,-3.40,-4.01,9.16,0.19,0.03,-0.02
10,1714685980836,-3.49,-4.04,9.15,0.19,0.02,-0.03
10,1714685980868,-3.46,-4.09,9.17,0.20,0.03,-0.02
10,1714685980900,-3.41,-4.13,9.19,0.20,0.04,-0.01
10,1714685980932,-3.27,-4.13,9.13,0.19,0.02,-0.02
10,1714685980965,-3.36,-4.16,9.22,0.20,0.03,-0.04
10,1714685980997,-3.41,-4.12,9.29,0.20,0.03,-0.04
10,1714685981029,-3.30,-4.09,9.21,0.21,0.03,-0.04
10,1714685981062,-3.39,-4.12,9.13,0.20,0.02,-0.05
10,1714685981094,-3.28,-4.08,9.11,0.20,0.01,-0.05
10,1714685981128,-3.39,-4.03,9.13,0.19,0.02,-0.05
10,1714685981159,-3.32,-3.99,9.06,0.17,0.00,-0.05
10,1714685981192,-3.38,-4.09,9.23,0.18,0.01,-0.06
10,1714685981224,-3.55,-4.17,9.17,0.20,0.01,-0.05
10,1714685981257,-3.58,-4.15,9.13,0.20,0.01,-0.04
10,1714685981289,-3.44,-4.11,9.09,0.21,-0.00,-0.03
10,1714685981321,-3.44,-4.07,9.18,0.23,0.01,-0.04
10,1714685981354,-3.27,-3.99,8.97,0.21,0.01,-0.04
10,1714685981386,-3.32,-3.99,9.03,0.18,0.01,-0.04
10,1714685981418,-3.45,-3.99,9.11,0.17,0.00,-0.04
10,1714685981450,-3.56,-3.94,9.09,0.17,-0.02,-0.03
10,1714685981483,-3.51,-3.94,8.93,0.17,-0.00,-0.02
10,1714685981515,-3.54,-4.09,9.05,0.18,0.01,-0.01
10,1714685981549,-3.53,-4.14,9.16,0.18,0.02,-0.00
10,1714685981582,-3.58,-4.22,9.11,0.19,0.02,0.02
10,1714685981615,-3.39,-4.12,9.05,0.19,-0.01,0.03
10,1714685981648,-3.29,-4.11,9.00,0.18,0.02,0.02
10,1714685981681,-3.30,-4.20,9.25,0.16,0.00,0.01
10,1714685981714,-3.27,-4.32,9.20,0.19,0.01,0.01
10,1714685981748,-3.18,-4.26,9.15,0.21,0.02,-0.00
10,1714685981781,-3.33,-4.26,9.17,0.22,0.03,-0.02
10,1714685981813,-3.29,-4.16,9.11,0.22,0.01,-0.02
10,1714685981845,-3.25,-4.10,9.01,0.21,0.03,-0.03
10,1714685981878,-3.33,-4.09,9.06,0.20,0.01,-0.04
10,1714685981912,-3.35,-4.03,8.97,0.18,0.01,-0.04
10,1714685981944,-3.42,-4.07,8.89,0.15,0.00,-0.04
10,1714685981978,-3.29,-4.17,9.03,0.16,0.02,-0.04
10,1714685982012,-3.40,-4.11,9.05,0.17,0.03,-0.05
10,1714685982044,-3.44,-4.09,9.02,0.16,0.03,-0.04
10,1714685982078,-3.47,-4.17,9.26,0.17,0.04,-0.04
10,1714685982111,-3.50,-4.21,9.34,0.19,0.04,-0.02
10,1714685982144,-3.46,-4.23,9.30,0.22,0.03,-0.01
10,1714685982177,-3.33,-4.23,9.33,0.22,0.00,-0.01
10,1714685982210,-3.26,-4.27,9.09,0.22,-0.00,-0.02
10,1714685982243,-3.24,-4.19,9.08,0.21,0.00,-0.04
10,1714685982275,-3.31,-4.16,9.15,0.21,0.01,-0.05
10,1714685982308,-3.32,-4.07,9.06,0.22,0.00,-0.05
10,1714685982341,-3.37,-3.92,8.97,0.23,0.01,-0.05
10,1714685982375,-3.42,-3.80,8.92,0.23,0.05,-0.03
10,1714685982408,-3.71,-3.82,8.77,0.25,0.05,-0.02
10,1714685982441,-3.63,-3.91,8.77,0.25,0.08,0.01
10,1714685982474,-3.74,-3.95,8.88,0.25,0.13,0.04
10,1714685982506,-3.50,-4.06,9.01,0.24,0.10,0.06
10,1714685982539,-3.46,-4.16,9.12,0.20,0.08,0.05
10,1714685982573,-3.39,-4.27,9.31,0.18,0.06,0.06
10,1714685982606,-3.27,-4.20,9.32,0.17,0.05,0.04
10,1714685982639,-3.18,-4.15,9.08,0.13,0.00,0.02
10,1714685982672,-3.28,-4.11,9.15,0.10,0.02,-0.01
10,1714685982704,-3.39,-4.12,8.77,0.09,0.04,-0.03
11,1714685985736,-3.81,-4.16,9.10,0.07,0.01,-0.03
11,1714685985769,-3.58,-4.30,9.09,0.09,-0.01,-0.03
11,1714685985802,-3.56,-4.30,9.38,0.15,0.01,-0.02
11,1714685985834,-3.65,-4.24,9.70,0.18,-0.01,-0.03
11,1714685985867,-3.74,-4.31,10.49,0.21,-0.09,-0.04
11,1714685985899,-3.62,-4.41,10.61,0.27,-0.08,-0.03
11,1714685985932,-3.89,-4.11,10.58,0.33,-0.16,-0.01
11,1714685985965,-3.76,-4.30,10.67,0.39,-0.33,0.04
11,1714685985998,-3.37,-4.32,10.53,0.47,-0.32,0.03
11,1714685986030,-3.67,-4.14,10.68,0.55,-0.39,0.05
11,1714685986064,-3.85,-4.33,12.18,0.60,-0.45,0.11
11,1714685986096,-4.21,-4.95,13.71,0.82,-0.74,0.22
11,1714685986129,-4.43,-5.98,17.07,1.32,-0.84,0.30
11,1714685986163,-3.92,-6.57,15.29,2.19,-0.36,0.47
11,1714685986196,-5.99,-5.19,14.62,3.17,-0.61,0.58
11,1714685986229,-6.28,-4.52,13.36,3.50,-1.23,0.83
11,1714685986263,-4.02,-4.12,9.89,3.83,-1.26,0.91
11,1714685986296,-3.41,-1.87,8.68,4.35,-1.46,1.01
11,1714685986329,-3.00,-0.69,8.65,4.13,-1.77,1.06
11,1714685986362,-1.55,-0.36,7.22,4.27,-1.52,1.03
11,1714685986396,-0.46,2.22,7.11,4.14,-1.71,1.14
11,1714685986429,-1.15,2.29,6.66,3.94,-1.41,1.17
11,1714685986461,1.58,3.46,5.55,3.82,-1.42,1.24
11,1714685986495,2.42,4.85,3.39,3.20,-0.73,1.04
11,1714685986528,2.35,5.28,2.84,2.58,-0.80,0.87
11,1714685986561,4.14,6.09,1.37,2.11,-0.70,0.77
11,1714685986594,4.02,6.39,1.25,1.51,-0.60,0.53
11,1714685986628,4.13,6.78,1.27,0.98,-0.49,0.33
11,1714685986661,4.68,6.62,0.06,0.52,-0.02,0.06
11,1714685986693,3.72,6.84,0.35,-0.03,0.18,-0.19
11,1714685986726,3.50,6.79,0.49,-0.55,0.45,-0.43
11,1714685986759,2.54,6.58,0.10,-1.07,0.86,-0.62
11,1714685986793,2.50,5.78,1.24,-1.50,1.00,-0.69
11,1714685986825,2.24,4.52,1.63,-1.96,1.25,-0.92
11,1714685986858,1.42,4.68,2.06,-2.70,1.77,-1.17
11,1714685986891,0.86,3.12,4.14,-3.24,1.64,-1.28
11,1714685986924,-0.18,1.33,4.92,-3.32,1.75,-1.39
11,1714685986957,-3.55,2.37,7.76,-4.09,1.52,-1.52
11,1714685986989,-3.66,0.37,8.94,-4.37,0.88,-1.41
11,1714685987022,-1.60,-2.85,10.20,-4.07,1.29,-1.10
11,1714685987054,-3.51,-2.26,13.15,-4.02,1.29,-1.15
11,1714685987087,-3.41,-4.25,13.66,-3.69,1.11,-1.35
11,1714685987119,-1.13,-6.27,15.80,-2.99,1.24,-1.50
11,1714685987152,-5.43,-6.56,17.23,-1.68,1.28,-1.34
11,1714685987185,-5.78,-5.78,16.47,-0.92,0.94,-1.05
11,1714685987217,-5.00,-5.09,14.44,-0.33,0.74,-0.82
11,1714685987249,-5.95,-4.51,13.28,0.10,0.69,-0.60
11,1714685987282,-5.30,-3.77,12.25,0.27,0.31,-0.33
11,1714685987314,-4.06,-3.88,11.46,0.29,0.29,-0.17
11,1714685987347,-4.52,-3.34,10.75,0.39,0.25,-0.06
11,1714685987380,-3.99,-2.89,10.14,0.34,-0.04,0.08
11,1714685987413,-3.30,-3.26,10.05,0.28,-0.14,0.10
11,1714685987446,-3.02,-3.04,9.63,0.36,0.03,0.09
11,1714685987478,-3.57,-2.83,9.47,0.45,0.05,0.10
11,1714685987511,-3.64,-2.77,9.34,0.38,-0.08,0.10
11,1714685987544,-3.22,-2.79,9.10,0.32,-0.01,0.08
11,1714685987576,-3.62,-2.89,9.22,0.29,0.05,0.06
11,1714685987608,-3.58,-2.95,9.33,0.24,-0.04,0.04
11,1714685987641,-3.07,-3.22,9.36,0.22,-0.04,0.02
11,1714685987674,-3.15,-3.12,9.28,0.22,0.06,0.01
11,1714685987706,-3.49,-3.12,9.41,0.20,-0.08,0.02
11,1714685987739,-3.33,-3.15,9.27,0.16,0.02,-0.02
11,1714685987771,-3.82,-3.26,9.28,0.14,0.08,0.03
11,1714685987803,-3.91,-3.07,9.41,0.10,-0.05,0.06
12,1714685990838,-3.45,-3.20,9.63,0.10,-0.06,0.06
12,1714685990869,-3.28,-3.14,9.72,0.15,-0.04,0.06
12,1714685990902,-3.17,-3.13,9.77,0.17,-0.01,0.05
12,1714685990934,-3.20,-3.34,9.94,0.22,0.00,0.00
12,1714685990966,-3.15,-3.18,9.86,0.28,0.02,-0.03
12,1714685990998,-3.13,-3.05,9.56,0.30,0.06,-0.03
12,1714685991031,-3.33,-3.06,9.43,0.29,0.07,-0.05
12,1714685991063,-3.37,-3.08,9.39,0.24,-0.00,-0.06
12,1714685991096,-3.23,-3.16,9.38,0.19,-0.02,-0.05
12,1714685991129,-3.43,-3.15,9.50,0.15,-0.03,-0.05
12,1714685991162,-3.38,-3.01,9.54,0.15,-0.03,-0.05
12,1714685991194,-3.22,-3.05,9.47,0.17,-0.02,-0.05
12,1714685991226,-3.47,-3.03,9.37,0.15,0.00,-0.06
12,1714685991259,-3.30,-3.00,9.49,0.12,-0.00,-0.06
12,1714685991292,-3.37,-3.13,9.60,0.16,0.00,-0.06
12,1714685991325,-3.70,-3.21,9.75,0.19,0.01,-0.05
12,1714685991357,-3.45,-3.12,9.51,0.20,0.02,-0.03
12,1714685991390,-3.47,-3.13,9.54,0.20,-0.02,0.00
12,1714685991423,-3.32,-3.23,9.61,0.21,0.02,-0.01
12,1714685991455,-3.47,-3.08,9.65,0.21,-0.01,-0.02
12,1714685991488,-3.32,-3.22,9.46,0.19,0.01,-0.01
12,1714685991520,-3.29,-3.16,9.55,0.19,0.03,0.00
12,1714685991553,-3.30,-3.24,9.51,0.21,0.00,-0.01
12,1714685991586,-3.34,-3.22,9.52,0.21,-0.03,-0.01
12,1714685991618,-3.24,-3.30,9.47,0.20,0.01,-0.00
12,1714685991651,-3.15,-3.20,9.44,0.22,0.00,-0.02
12,1714685991685,-2.94,-3.21,9.42,0.21,-0.02,-0.04
12,1714685991719,-3.21,-3.10,9.30,0.18,0.05,-0.06
12,1714685991752,-3.29,-3.14,9.55,0.16,0.03,-0.06
12,1714685991784,-3.45,-3.15,9.71,0.17,0.01,-0.06
12,1714685991816,-3.26,-3.28,9.71,0.19,0.03,-0.06
12,1714685991849,-3.37,-3.19,9.69,0.20,0.02,-0.04
12,1714685991881,-3.33,-3.23,9.65,0.21,0.01,-0.03
12,1714685991914,-3.25,-3.22,9.61,0.23,0.02,-0.03
12,1714685991946,-3.20,-3.13,9.53,0.22,0.02,-0.04
12,1714685991979,-3.23,-3.05,9.58,0.20,0.02,-0.04
12,1714685992012,-3.21,-3.13,9.48,0.18,0.00,-0.04
12,1714685992045,-3.19,-3.10,9.50,0.18,0.01,-0.04
12,1714685992077,-3.40,-3.24,9.57,0.18,0.01,-0.05
12,1714685992111,-3.37,-3.15,9.58,0.19,0.01,-0.03
12,1714685992144,-3.28,-3.14,9.56,0.19,0.03,-0.03
12,1714685992178,-3.36,-3.19,9.61,0.19,0.02,-0.02
12,1714685992211,-3.32,-3.15,9.54,0.20,0.01,-0.01
12,1714685992244,-3.37,-3.10,9.36,0.18,0.01,-0.01
12,1714685992275,-3.28,-3.20,9.52,0.18,0.01,-0.02
12,1714685992309,-3.19,-3.22,9.63,0.19,0.01,-0.00
12,1714685992341,-3.22,-3.22,9.59,0.19,0.02,-0.01
12,1714685992373,-3.26,-3.14,9.52,0.19,0.00,-0.01
12,1714685992406,-3.28,-3.23,9.65,0.20,0.02,-0.01
12,1714685992439,-3.26,-3.18,9.65,0.20,0.03,-0.02
12,1714685992471,-3.34,-3.22,9.64,0.20,0.02,-0.01
12,1714685992504,-3.24,-3.23,9.62,0.20,0.01,-0.01
12,1714685992537,-3.34,-3.24,9.61,0.20,0.01,-0.01
12,1714685992569,-3.32,-3.16,9.52,0.20,-0.00,-0.01
12,1714685992601,-3.23,-3.20,9.74,0.20,-0.00,-0.01
12,1714685992633,-3.21,-3.23,9.58,0.20,-0.00,-0.02
12,1714685992667,-3.22,-3.19,9.46,0.21,0.02,-0.03
12,1714685992699,-3.39,-3.23,9.47,0.21,0.01,-0.03
12,1714685992731,-3.24,-3.19,9.43,0.20,0.01,-0.03
12,1714685992763,-3.25,-3.23,9.63,0.21,0.00,-0.03
12,1714685992796,-3.26,-3.25,9.58,0.22,0.01,-0.03
12,1714685992829,-3.23,-3.14,9.44,0.22,0.02,-0.03
12,1714685992862,-3.24,-3.09,9.48,0.19,0.02,-0.03
12,1714685992896,-3.34,-3.17,9.47,0.18,0.01,-0.02
13,1714685995929,-3.25,-3.16,9.60,0.17,-0.01,-0.02
13,1714685995962,-3.18,-3.11,9.57,0.16,0.01,-0.02
13,1714685995995,-3.12,-3.22,9.56,0.17,0.01,-0.03
13,1714685996029,-3.37,-3.26,9.66,0.17,-0.00,-0.03
13,1714685996062,-3.36,-3.20,9.62,0.16,0.01,-0.02
13,1714685996096,-3.32,-3.27,9.55,0.18,0.02,0.01
13,1714685996129,-3.16,-3.19,9.65,0.18,-0.01,-0.01
13,1714685996162,-3.15,-3.28,9.69,0.19,0.01,-0.01
13,1714685996195,-3.25,-3.31,9.56,0.19,0.01,-0.01
13,1714685996229,-3.21,-3.20,9.49,0.19,0.00,-0.00
13,1714685996263,-3.16,-3.11,9.57,0.14,-0.03,-0.01
13,1714685996296,-3.08,-3.19,9.62,0.13,-0.04,-0.02
13,1714685996330,-3.22,-3.32,9.67,0.14,-0.03,-0.02
13,1714685996363,-3.34,-3.48,9.82,0.17,-0.02,-0.02
13,1714685996397,-3.24,-3.41,9.65,0.25,0.01,-0.01
13,1714685996430,-3.22,-3.32,9.48,0.28,0.03,-0.01
13,1714685996463,-3.14,-3.12,9.22,0.26,0.02,-0.02
13,1714685996496,-3.17,-3.17,9.20,0.23,0.02,-0.03
13,1714685996528,-3.13,-3.13,9.35,0.19,0.01,-0.03
13,1714685996561,-3.12,-3.13,9.50,0.19,0.03,-0.04
13,1714685996595,-3.39,-3.22,9.48,0.19,0.05,-0.04
13,1714685996628,-3.42,-3.34,10.07,0.21,0.05,-0.04
13,1714685996661,-3.43,-3.32,10.15,0.28,0.06,-0.02
13,1714685996694,-3.32,-3.08,9.84,0.32,0.02,-0.00
13,1714685996727,-3.13,-3.10,9.62,0.25,-0.00,-0.00
13,1714685996760,-3.17,-3.29,9.59,0.21,-0.03,0.01
13,1714685996794,-3.15,-3.20,9.52,0.20,-0.05,0.00
13,1714685996827,-3.05,-3.18,9.41,0.18,-0.04,0.00
13,1714685996860,-3.06,-3.28,9.37,0.17,-0.04,-0.01
13,1714685996893,-3.11,-3.25,9.41,0.17,-0.03,-0.02
13,1714685996926,-3.08,-3.26,9.39,0.18,0.01,-0.03
13,1714685996960,-3.25,-3.17,9.50,0.18,0.01,-0.03
13,1714685996993,-3.15,-3.14,9.53,0.18,-0.01,-0.01
13,1714685997026,-3.07,-3.18,9.60,0.18,0.00,-0.02
13,1714685997059,-3.19,-3.08,9.54,0.21,0.03,-0.04
13,1714685997092,-3.23,-3.05,9.57,0.21,0.03,-0.05
13,1714685997124,-3.22,-3.05,9.61,0.20,0.05,-0.06
13,1714685997157,-3.31,-3.10,9.57,0.20,0.05,-0.06
13,1714685997191,-3.32,-3.10,9.69,0.20,0.04,-0.05
13,1714685997223,-3.31,-3.11,9.57,0.19,0.04,-0.04
13,1714685997257,-3.42,-3.16,9.61,0.18,0.03,-0.03
13,1714685997289,-3.11,-3.18,9.76,0.18,-0.00,-0.01
13,1714685997321,-3.13,-3.25,9.58,0.19,0.02,-0.02
13,1714685997354,-3.13,-3.19,9.61,0.18,0.01,-0.02
13,1714685997386,-3.15,-3.26,9.68,0.18,0.01,-0.03
13,1714685997418,-3.24,-3.22,9.58,0.19,0.01,-0.03
13,1714685997450,-3.29,-3.19,9.51,0.18,0.00,-0.02
13,1714685997483,-3.27,-3.16,9.57,0.17,-0.02,-0.01
13,1714685997516,-3.20,-3.08,9.92,0.15,-0.03,0.01
13,1714685997548,-3.25,-2.67,10.62,0.09,-0.13,0.03
13,1714685997580,-4.12,-2.51,13.10,-0.11,-0.33,0.15
13,1714685997613,-3.80,-3.99,16.89,-0.11,-0.49,0.28
13,1714685997645,-3.23,-5.24,17.47,0.64,-0.69,0.33
13,1714685997677,-3.95,-5.10,18.68,1.47,-0.82,0.38
13,1714685997711,-4.12,-5.48,16.86,2.19,-0.88,0.47
13,1714685997744,-3.75,-4.46,14.66,2.88,-0.86,0.54
13,1714685997776,-5.54,-3.90,14.18,3.36,-1.12,0.73
13,1714685997809,-3.72,-3.12,11.09,3.64,-1.16,0.81
13,1714685997841,-4.45,-2.08,10.29,3.90,-1.52,0.91
13,1714685997873,-3.45,-1.63,8.81,3.87,-1.67,0.99
13,1714685997905,-1.16,-0.19,6.33,4.13,-1.57,1.05
13,1714685997938,-1.02,0.91,5.30,4.14,-1.34,1.11
13,1714685997971,0.06,2.04,4.58,3.56,-1.09,1.01
13,1714685998003,1.18,2.02,3.17,3.30,-0.84,0.95
14,1714686001037,1.91,3.95,3.14,3.08,-0.67,1.03
14,1714686001070,2.30,4.84,2.38,2.29,-0.41,0.79
14,1714686001103,2.93,5.57,2.15,1.75,-0.37,0.56
14,1714686001136,3.95,5.88,1.73,1.30,-0.48,0.49
14,1714686001169,3.85,6.57,1.63,0.75,-0.16,0.15
14,1714686001202,4.16,6.88,1.58,0.35,0.04,-0.09
14,1714686001235,4.18,6.75,1.73,0.09,0.07,-0.27
14,1714686001268,4.56,6.91,2.28,-0.41,0.18,-0.56
14,1714686001301,3.09,7.41,3.44,-0.74,0.45,-0.82
14,1714686001333,2.14,6.84,4.36,-0.94,0.52,-0.90
14,1714686001365,1.65,6.12,5.08,-1.02,0.46,-0.88
14,1714686001398,1.02,6.69,4.90,-1.11,0.96,-0.97
14,1714686001430,-0.11,6.46,5.26,-1.38,1.13,-0.93
14,1714686001463,-0.11,5.32,6.78,-1.59,0.78,-0.90
14,1714686001495,-0.02,5.76,6.36,-1.65,1.11,-0.96
14,1714686001528,-0.69,5.09,7.41,-1.96,1.22,-0.87
14,1714686001561,-1.03,4.30,9.39,-1.97,0.88,-0.85
14,1714686001593,-2.33,4.25,10.05,-1.93,0.99,-0.82
14,1714686001625,-2.82,3.65,11.40,-1.98,0.73,-0.72
14,1714686001657,-2.35,2.96,11.52,-1.82,0.64,-0.71
14,1714686001690,-2.85,2.56,11.62,-1.72,0.70,-0.62
14,1714686001723,-3.04,2.07,11.46,-1.74,0.33,-0.54
14,1714686001756,-2.72,0.76,11.96,-1.44,0.29,-0.44
14,1714686001788,-2.64,0.96,11.87,-1.12,0.52,-0.38
14,1714686001821,-2.83,0.51,11.52,-1.11,0.36,-0.37
14,1714686001853,-1.96,-0.76,11.36,-0.88,0.41,-0.40
14,1714686001886,-2.72,-0.42,11.04,-0.58,0.68,-0.49
14,1714686001918,-3.57,-0.17,11.16,-0.59,0.61,-0.44
14,1714686001950,-3.54,-0.52,11.39,-0.64,0.38,-0.37
14,1714686001983,-3.12,-0.63,11.23,-0.50,0.45,-0.38
14,1714686002015,-3.41,-0.43,11.51,-0.48,0.45,-0.36
14,1714686002048,-3.59,-0.71,11.62,-0.50,0.25,-0.34
14,1714686002080,-3.43,-1.11,11.10,-0.34,0.30,-0.33
14,1714686002113,-3.72,-0.75,11.06,-0.27,0.39,-0.27
14,1714686002145,-4.10,-0.95,11.16,-0.30,0.24,-0.23
14,1714686002178,-3.66,-1.41,10.87,-0.20,0.16,-0.22
14,1714686002210,-3.63,-1.20,10.62,-0.12,0.19,-0.20
14,1714686002242,-3.99,-1.42,10.44,-0.11,0.20,-0.21
14,1714686002274,-4.07,-1.72,10.37,-0.05,0.12,-0.19
14,1714686002307,-3.92,-1.84,10.29,0.07,0.14,-0.13
14,1714686002340,-3.79,-1.73,10.30,0.15,0.17,-0.10
14,1714686002372,-3.96,-1.70,10.13,0.16,0.13,-0.09
14,1714686002404,-3.81,-1.68,9.99,0.16,0.12,-0.07
14,1714686002436,-3.94,-1.83,10.01,0.15,0.10,-0.06
14,1714686002469,-3.82,-1.91,9.89,0.18,0.15,-0.05
14,1714686002501,-3.77,-1.76,9.75,0.18,0.15,-0.04
14,1714686002535,-3.89,-1.88,9.54,0.18,0.26,-0.02
14,1714686002567,-4.34,-1.72,9.57,0.17,0.17,0.01
14,1714686002599,-4.25,-1.97,9.71,0.13,-0.02,0.04
14,1714686002632,-3.99,-2.00,9.72,0.18,0.07,0.03
14,1714686002665,-4.08,-2.06,9.65,0.20,0.08,0.03
14,1714686002698,-3.97,-2.03,9.57,0.23,0.04,0.01
14,1714686002731,-3.95,-1.95,9.40,0.22,0.08,-0.00
14,1714686002763,-4.12,-1.86,9.42,0.18,0.06,-0.00
14,1714686002795,-4.06,-2.03,9.39,0.13,0.01,0.00
14,1714686002828,-3.91,-2.05,9.54,0.15,0.02,0.00
14,1714686002862,-4.13,-2.11,9.55,0.15,0.05,0.00
14,1714686002894,-4.11,-2.10,9.66,0.14,0.02,-0.00
14,1714686002927,-3.90,-2.00,9.60,0.14,0.03,-0.01
14,1714686002959,-4.03,-2.03,9.51,0.14,0.04,-0.03
14,1714686002991,-4.22,-2.07,9.45,0.11,0.01,-0.03
14,1714686003024,-4.17,-2.07,9.44,0.05,0.02,-0.02
14,1714686003056,-4.32,-2.23,9.54,0.05,0.01,-0.02
14,1714686003089,-4.18,-2.35,9.71,0.10,-0.03,0.01
15,1714686006123,-4.00,-2.35,9.63,0.12,0.02,-0.00
15,1714686006157,-3.94,-2.24,9.59,0.15,0.02,-0.00
15,1714686006190,-3.91,-2.30,9.44,0.16,0.02,-0.03
15,1714686006223,-3.96,-2.34,9.58,0.18,0.03,-0.03
15,1714686006256,-4.21,-2.17,9.52,0.14,0.01,-0.03
15,1714686006289,-4.02,-2.37,9.62,0.11,-0.02,-0.03
15,1714686006322,-4.11,-2.38,9.68,0.14,-0.01,-0.03
15,1714686006355,-4.02,-2.35,9.67,0.16,-0.00,-0.03
15,1714686006387,-4.18,-2.30,9.67,0.20,-0.00,-0.00
15,1714686006420,-4.14,-2.29,9.68,0.22,-0.00,0.00
15,1714686006452,-3.97,-2.16,9.46,0.20,-0.02,-0.02
15,1714686006485,-4.02,-2.26,9.46,0.21,-0.02,-0.03
15,1714686006518,-4.11,-2.21,9.39,0.19,-0.04,-0.03
15,1714686006550,-4.11,-2.18,9.39,0.17,-0.01,-0.03
15,1714686006583,-4.23,-2.17,9.35,0.16,-0.01,-0.03
15,1714686006615,-4.07,-2.26,9.42,0.16,-0.03,-0.01
15,1714686006649,-3.99,-2.19,9.35,0.13,-0.01,-0.01
15,1714686006682,-3.99,-2.30,9.46,0.11,-0.03,-0.01
15,1714686006715,-4.07,-2.51,9.64,0.15,-0.03,-0.01
15,1714686006748,-3.95,-2.38,9.51,0.18,-0.01,-0.01
15,1714686006781,-4.00,-2.38,9.51,0.16,0.02,-0.02
15,1714686006814,-3.85,-2.39,9.50,0.16,-0.01,-0.01
15,1714686006847,-4.05,-2.39,9.50,0.16,-0.03,-0.01
15,1714686006879,-3.99,-2.33,9.57,0.16,-0.01,-0.03
15,1714686006912,-3.89,-2.37,9.59,0.17,0.01,-0.03
15,1714686006944,-4.04,-2.34,9.61,0.17,-0.04,-0.01
15,1714686006976,-3.96,-2.43,9.61,0.19,-0.00,-0.03
15,1714686007010,-4.00,-2.49,9.58,0.21,0.01,-0.02
15,1714686007042,-3.96,-2.40,9.42,0.21,-0.01,-0.01
15,1714686007074,-3.86,-2.49,9.43,0.22,-0.03,-0.01
15,1714686007108,-3.85,-2.41,9.31,0.21,0.01,-0.03
15,1714686007141,-3.82,-2.38,9.32,0.19,0.03,-0.04
15,1714686007174,-3.91,-2.38,9.39,0.18,0.01,-0.04
15,1714686007208,-3.97,-2.39,9.45,0.18,-0.01,-0.03
15,1714686007240,-3.96,-2.40,9.52,0.18,0.02,-0.03
15,1714686007273,-4.03,-2.39,9.38,0.17,0.00,-0.02
15,1714686007305,-4.01,-2.38,9.49,0.17,-0.01,-0.01
15,1714686007339,-3.85,-2.38,9.57,0.16,0.00,-0.01
15,1714686007372,-3.94,-2.37,9.56,0.17,0.01,-0.00
15,1714686007405,-3.96,-2.33,9.50,0.17,-0.01,-0.00
15,1714686007438,-3.88,-2.39,9.60,0.17,0.01,-0.00
15,1714686007471,-3.91,-2.33,9.51,0.16,0.03,-0.00
15,1714686007503,-3.85,-2.40,9.56,0.15,-0.01,0.00
15,1714686007535,-3.85,-2.49,9.49,0.16,0.01,-0.01
15,1714686007568,-3.85,-2.42,9.51,0.17,0.01,-0.00
15,1714686007600,-3.86,-2.56,9.51,0.17,0.01,-0.01
15,1714686007632,-3.94,-2.58,9.52,0.19,0.02,-0.01
15,1714686007665,-3.86,-2.55,9.62,0.19,-0.01,-0.01
15,1714686007698,-3.83,-2.49,9.48,0.19,0.02,-0.02
15,1714686007731,-3.81,-2.49,9.44,0.18,-0.00,-0.02
15,1714686007764,-3.87,-2.49,9.62,0.18,-0.02,-0.02
15,1714686007797,-3.82,-2.55,9.56,0.18,-0.00,-0.02
15,1714686007829,-3.87,-2.52,9.56,0.19,0.01,-0.03
15,1714686007862,-3.96,-2.44,9.54,0.19,-0.01,-0.03
15,1714686007894,-3.86,-2.45,9.55,0.17,-0.01,-0.02
15,1714686007927,-3.90,-2.49,9.37,0.18,0.01,-0.01
15,1714686007959,-3.88,-2.49,9.52,0.18,0.01,-0.02
15,1714686007992,-3.99,-2.55,9.61,0.18,-0.01,-0.02
15,1714686008025,-3.84,-2.50,9.56,0.19,0.03,-0.01
15,1714686008057,-3.90,-2.47,9.62,0.19,-0.00,-0.01
15,1714686008090,-3.81,-2.52,9.60,0.18,-0.02,-0.01
15,1714686008122,-3.81,-2.56,9.50,0.19,0.00,-0.01
15,1714686008154,-3.84,-2.52,9.54,0.19,0.00,-0.01
15,1714686008187,-3.82,-2.61,9.43,0.19,0.00,-0.02
16,1714686011220,-3.89,-2.55,9.41,0.18,-0.01,-0.02
16,1714686011252,-3.69,-2.54,9.32,0.16,0.01,-0.02
16,1714686011285,-3.80,-2.56,9.38,0.15,0.03,-0.02
16,1714686011318,-3.80,-2.53,9.51,0.11,-0.01,-0.03
16,1714686011350,-3.73,-2.63,9.58,0.13,-0.01,-0.04
16,1714686011382,-3.82,-2.69,9.68,0.17,0.02,-0.04
16,1714686011415,-3.93,-2.64,9.56,0.20,0.03,-0.05
16,1714686011448,-3.88,-2.58,9.58,0.19,0.01,-0.03
16,1714686011481,-3.80,-2.60,9.56,0.19,0.02,-0.03
16,1714686011514,-3.75,-2.61,9.37,0.18,0.04,-0.04
16,1714686011546,-3.91,-2.52,9.29,0.14,0.04,-0.04
16,1714686011579,-3.90,-2.65,9.29,0.12,-0.01,-0.02
16,1714686011611,-3.74,-2.71,9.56,0.12,0.01,-0.02
16,1714686011644,-3.84,-2.69,9.61,0.11,0.01,-0.03
16,1714686011678,-3.74,-2.80,9.61,0.17,0.01,-0.03
16,1714686011712,-3.73,-2.77,9.73,0.19,0.03,-0.03
16,1714686011745,-3.85,-2.69,9.58,0.19,0.04,-0.04
16,1714686011778,-3.85,-2.69,9.70,0.19,0.00,-0.04
16,1714686011811,-3.92,-2.68,9.61,0.21,0.01,-0.03
16,1714686011844,-3.83,-2.68,9.60,0.20,0.01,-0.03
16,1714686011878,-3.87,-2.68,9.45,0.21,0.00,-0.03
16,1714686011911,-3.76,-2.74,9.38,0.20,-0.01,-0.03
16,1714686011944,-3.96,-2.69,9.40,0.20,-0.01,-0.02
16,1714686011978,-3.90,-2.62,9.51,0.17,-0.06,-0.01
16,1714686012010,-3.88,-2.67,9.58,0.16,-0.02,-0.01
16,1714686012044,-3.93,-2.53,9.99,0.12,-0.07,0.02
16,1714686012077,-3.89,-2.43,10.54,0.03,-0.16,0.04
16,1714686012110,-3.62,-2.64,11.41,-0.07,-0.26,0.04
16,1714686012143,-3.00,-2.86,12.56,-0.11,-0.13,-0.05
16,1714686012176,-3.88,-2.62,13.63,-0.17,0.21,-0.08
16,1714686012208,-3.85,-2.82,15.36,-0.08,0.23,0.13
16,1714686012241,-2.97,-3.98,13.43,0.16,0.65,0.06
16,1714686012274,-5.81,-3.87,13.62,0.72,0.31,0.06
16,1714686012307,-7.10,-4.90,14.19,1.59,-0.24,0.44
16,1714686012341,-6.29,-5.26,13.17,2.37,-0.71,0.63
16,1714686012374,-6.75,-3.64,11.52,2.82,-0.70,0.69
16,1714686012406,-9.22,-4.30,10.70,2.98,-1.48,0.92
16,1714686012439,-6.79,-3.99,6.49,3.52,-2.56,1.18
16,1714686012472,-2.84,-2.41,8.14,4.37,-2.80,1.19
16,1714686012505,-0.77,-2.33,5.47,4.37,-1.42,1.36
16,1714686012538,-0.09,1.91,5.04,4.37,-0.29,1.02
16,1714686012570,-1.60,2.18,3.41,3.99,-0.70,1.28
16,1714686012603,0.56,3.77,0.71,2.60,-0.78,0.86
16,1714686012635,2.27,4.23,0.92,2.00,-0.05,0.68
16,1714686012667,2.04,5.93,0.58,1.04,0.54,0.33
16,1714686012700,1.92,6.16,0.37,-0.14,0.56,-0.01
16,1714686012733,2.81,5.96,1.67,-0.98,0.52,-0.15
16,1714686012765,2.58,5.83,4.03,-1.74,0.79,-0.50
16,1714686012798,1.40,5.19,5.05,-2.67,0.89,-1.01
16,1714686012830,-1.07,4.33,7.08,-2.91,0.33,-1.16
16,1714686012864,-0.60,3.16,9.18,-2.95,0.30,-0.99
16,1714686012895,0.15,2.74,10.29,-2.75,1.12,-0.89
16,1714686012929,-2.06,1.97,9.68,-2.13,1.53,-1.32
16,1714686012961,-5.40,1.43,11.45,-2.15,0.70,-0.99
16,1714686012995,-3.28,0.59,12.39,-1.70,0.68,-0.76
16,1714686013027,-3.98,0.75,11.41,-1.50,1.05,-0.85
16,1714686013060,-5.31,0.37,10.47,-1.64,0.46,-0.64
16,1714686013093,-4.49,-1.00,11.90,-1.60,0.11,-0.49
16,1714686013125,-3.73,-1.40,12.41,-1.10,0.31,-0.40
16,1714686013157,-3.70,-1.21,10.90,-0.97,0.53,-0.30
16,1714686013190,-4.28,-1.55,10.93,-0.95,0.56,-0.31
16,1714686013222,-4.40,-1.92,10.90,-0.71,0.33,-0.20
16,1714686013254,-3.76,-2.01,10.78,-0.47,0.29,-0.15
16,1714686013288,-4.24,-2.13,11.19,-0.47,0.23,-0.18
17,1714686016321,-3.86,-2.28,10.29,-0.35,0.21,-0.12
17,1714686016354,-3.89,-2.38,10.54,-0.24,0.21,-0.12
17,1714686016388,-3.98,-2.49,10.62,-0.16,0.24,-0.13
17,1714686016421,-4.27,-2.56,10.11,-0.13,0.12,-0.11
17,1714686016454,-3.88,-2.69,9.62,-0.09,0.10,-0.10
17,1714686016487,-4.15,-2.75,9.52,-0.05,0.20,-0.08
17,1714686016521,-4.11,-2.56,9.38,-0.04,0.20,-0.07
17,1714686016554,-4.09,-2.75,9.55,-0.05,0.17,-0.07
17,1714686016586,-4.04,-2.80,9.66,-0.00,0.14,-0.08
17,1714686016619,-4.12,-2.69,9.61,0.02,0.10,-0.08
17,1714686016652,-4.28,-2.88,9.68,0.02,0.07,-0.05
17,1714686016686,-4.16,-2.90,9.44,0.05,0.09,-0.05
17,1714686016719,-4.04,-3.01,9.43,0.08,0.07,-0.05
17,1714686016752,-4.35,-3.09,9.49,0.11,0.03,-0.05
17,1714686016784,-4.10,-3.00,9.46,0.13,0.02,-0.05
17,1714686016816,-4.15,-3.10,9.31,0.15,0.06,-0.05
17,1714686016849,-4.25,-3.06,9.24,0.17,0.03,-0.04
17,1714686016882,-4.36,-3.03,9.23,0.13,-0.03,-0.03
17,1714686016914,-4.17,-3.24,9.20,0.11,-0.01,-0.03
17,1714686016946,-4.13,-3.33,9.22,0.12,0.00,-0.02
17,1714686016980,-4.18,-3.37,9.28,0.13,0.01,-0.02
17,1714686017012,-4.15,-3.23,9.13,0.15,-0.04,-0.02
17,1714686017044,-3.88,-3.37,9.05,0.14,-0.02,-0.02
17,1714686017077,-3.87,-3.36,9.00,0.18,0.05,-0.04
17,1714686017109,-4.32,-3.38,9.11,0.18,0.05,-0.04
17,1714686017143,-4.28,-3.24,9.09,0.18,-0.02,-0.02
17,1714686017175,-3.96,-3.28,9.04,0.15,0.02,-0.01
17,1714686017207,-4.18,-3.40,9.35,0.17,0.02,-0.03
17,1714686017240,-4.19,-3.25,9.22,0.18,-0.02,-0.03
17,1714686017273,-4.01,-3.32,9.09,0.19,-0.01,-0.02
17,1714686017305,-4.09,-3.30,9.18,0.20,0.03,-0.04
17,1714686017337,-4.33,-3.32,9.24,0.21,0.00,-0.04
17,1714686017370,-4.11,-3.35,9.15,0.22,-0.02,-0.04
17,1714686017403,-4.00,-3.21,9.09,0.22,-0.01,-0.03
17,1714686017436,-4.06,-3.38,9.04,0.22,0.02,-0.04
17,1714686017469,-4.14,-3.37,9.14,0.23,0.01,-0.04
17,1714686017503,-4.06,-3.27,9.11,0.24,-0.02,-0.04
17,1714686017535,-3.98,-3.31,9.09,0.22,-0.01,-0.03
17,1714686017567,-3.94,-3.29,8.94,0.21,0.02,-0.05
17,1714686017599,-4.02,-3.16,9.04,0.20,-0.00,-0.05
17,1714686017632,-4.12,-3.28,9.09,0.18,-0.02,-0.04
17,1714686017665,-3.92,-3.28,9.05,0.17,-0.01,-0.03
17,1714686017698,-3.99,-3.32,9.18,0.17,0.03,-0.05
17,1714686017730,-4.20,-3.34,9.25,0.18,0.00,-0.04
17,1714686017763,-4.10,-3.26,9.22,0.20,-0.02,-0.03
17,1714686017795,-3.97,-3.28,9.10,0.20,0.03,-0.03
17,1714686017828,-4.12,-3.24,9.19,0.20,0.01,-0.03
17,1714686017861,-4.06,-3.25,9.16,0.19,-0.01,-0.03
17,1714686017894,-4.12,-3.17,9.22,0.19,-0.02,-0.02
17,1714686017927,-3.92,-3.21,9.25,0.20,0.00,-0.02
17,1714686017959,-4.03,-3.34,9.19,0.21,0.00,-0.02
17,1714686017991,-4.10,-3.30,9.19,0.22,0.00,-0.03
17,1714686018023,-4.04,-3.31,9.18,0.22,0.00,-0.02
17,1714686018055,-4.08,-3.33,9.17,0.23,0.00,-0.00
17,1714686018088,-3.98,-3.17,9.11,0.21,0.02,-0.01
17,1714686018121,-4.08,-3.34,9.23,0.21,-0.00,-0.00
17,1714686018154,-4.02,-3.31,9.17,0.22,-0.02,-0.01
17,1714686018187,-3.89,-3.21,9.08,0.22,0.02,-0.02
17,1714686018220,-4.11,-3.31,9.19,0.21,0.02,-0.03
17,1714686018252,-4.02,-3.29,9.23,0.22,-0.01,-0.02
17,1714686018285,-3.92,-3.24,9.21,0.21,0.02,-0.01
17,1714686018317,-3.93,-3.21,9.23,0.21,0.02,-0.02
17,1714686018349,-4.04,-3.19,9.23,0.22,0.01,-0.03
17,1714686018381,-4.03,-3.23,9.25,0.21,0.01,-0.03
18,1714686021415,-3.91,-3.25,9.19,0.22,0.01,-0.03
18,1714686021447,-4.00,-3.22,9.15,0.21,0.02,-0.02
18,1714686021480,-3.95,-3.25,9.23,0.21,-0.00,-0.03
18,1714686021512,-3.93,-3.16,9.01,0.20,0.02,-0.03
18,1714686021545,-3.98,-3.03,8.91,0.18,0.00,-0.03
18,1714686021577,-4.04,-2.97,9.05,0.14,0.01,-0.04
18,1714686021609,-4.11,-3.11,9.26,0.11,0.00,-0.05
18,1714686021642,-4.28,-3.34,9.42,0.14,-0.02,-0.04
18,1714686021674,-4.03,-3.41,9.27,0.16,-0.03,-0.00
18,1714686021707,-3.69,-3.36,9.22,0.17,0.02,-0.00
18,1714686021740,-4.10,-3.42,9.30,0.18,0.00,-0.03
18,1714686021772,-3.76,-3.47,9.19,0.21,-0.04,-0.02
18,1714686021805,-3.78,-3.32,9.16,0.23,0.03,-0.02
18,1714686021838,-3.98,-3.27,9.24,0.22,0.02,-0.03
18,1714686021872,-4.00,-3.30,9.30,0.22,-0.00,-0.03
18,1714686021904,-3.89,-3.26,9.17,0.23,-0.02,0.00
18,1714686021936,-3.94,-3.17,9.10,0.23,0.03,-0.00
18,1714686021969,-4.00,-3.10,9.14,0.21,0.00,0.00
18,1714686022002,-4.04,-3.25,9.18,0.20,-0.01,0.00
18,1714686022034,-3.95,-3.18,9.12,0.21,0.01,0.00
18,1714686022067,-3.97,-3.27,9.17,0.23,0.05,0.01
18,1714686022101,-3.96,-3.14,8.99,0.23,0.05,0.00
18,1714686022133,-4.00,-3.21,9.11,0.20,0.04,-0.01
18,1714686022165,-3.71,-3.22,9.04,0.18,0.05,-0.02
18,1714686022197,-3.94,-3.20,9.12,0.17,0.07,-0.04
18,1714686022230,-3.89,-3.25,9.24,0.15,0.05,-0.05
18,1714686022263,-3.94,-3.27,9.23,0.13,0.04,-0.05
18,1714686022295,-3.96,-3.34,9.22,0.15,0.04,-0.05
18,1714686022328,-3.95,-3.31,9.22,0.16,0.05,-0.07
18,1714686022361,-3.86,-3.21,9.06,0.16,0.06,-0.07
18,1714686022394,-4.27,-3.35,9.22,0.14,0.03,-0.06
18,1714686022427,-4.09,-3.33,9.25,0.15,0.02,-0.05
18,1714686022460,-3.88,-3.25,8.91,0.15,0.05,-0.05
18,1714686022493,-4.03,-3.18,8.98,0.12,0.06,-0.05
18,1714686022527,-3.91,-3.30,8.83,0.08,0.05,-0.06
18,1714686022559,-4.06,-3.36,8.99,0.07,0.03,-0.06
18,1714686022593,-3.75,-3.34,8.84,0.05,0.05,-0.06
18,1714686022626,-4.22,-3.49,9.14,0.03,0.06,-0.07
18,1714686022659,-4.45,-3.71,9.20,0.05,-0.04,-0.04
18,1714686022693,-4.14,-3.64,9.12,0.08,-0.00,-0.02
18,1714686022726,-4.15,-3.62,9.18,0.10,0.06,0.01
18,1714686022759,-4.07,-3.57,9.06,0.11,0.03,-0.00
18,1714686022792,-4.02,-3.67,9.10,0.11,-0.01,-0.00
18,1714686022826,-3.91,-3.61,9.03,0.12,0.03,-0.02
18,1714686022858,-3.91,-3.75,8.81,0.13,0.05,-0.02
18,1714686022892,-4.11,-3.77,8.87,0.12,0.03,-0.03
18,1714686022925,-3.85,-3.81,8.74,0.12,0.04,-0.04
18,1714686022958,-3.96,-3.84,8.59,0.11,0.09,-0.05
18,1714686022991,-4.25,-3.84,8.69,0.08,0.05,-0.06
18,1714686023023,-3.54,-3.94,8.31,0.07,0.10,-0.07
18,1714686023056,-3.79,-3.92,7.99,0.06,0.23,-0.13
18,1714686023090,-3.96,-3.87,8.08,-0.01,0.11,-0.16
18,1714686023123,-3.71,-4.11,8.30,-0.10,-0.00,-0.19
18,1714686023156,-3.42,-4.17,8.17,-0.13,0.08,-0.26
18,1714686023189,-4.12,-4.37,8.66,-0.13,0.15,-0.28
18,1714686023223,-3.85,-4.34,8.49,-0.11,0.24,-0.25
18,1714686023254,-4.07,-4.31,8.49,-0.12,0.38,-0.26
18,1714686023287,-4.62,-4.44,8.66,-0.14,0.21,-0.25
18,1714686023319,-4.64,-4.66,8.94,-0.15,0.18,-0.27
18,1714686023351,-4.58,-4.98,8.93,-0.08,0.10,-0.18
18,1714686023384,-4.32,-4.92,8.71,-0.01,0.20,-0.18
18,1714686023416,-4.91,-4.79,8.58,0.01,0.12,-0.13
18,1714686023450,-4.30,-4.86,8.44,0.02,0.07,-0.11
18,1714686023483,-4.27,-4.90,8.75,0.03,0.10,-0.11
19,1714686026516,-4.67,-4.94,9.22,0.06,0.05,-0.08
19,1714686026549,-4.74,-4.94,9.67,0.09,-0.09,-0.03
19,1714686026583,-4.79,-4.92,10.25,0.10,-0.23,0.00
19,1714686026616,-4.91,-5.33,11.10,0.12,-0.39,0.07
19,1714686026649,-4.50,-5.95,12.17,0.31,-0.40,0.17
19,1714686026682,-4.59,-6.25,12.76,0.68,-0.36,0.25
19,1714686026715,-4.92,-5.80,12.47,1.00,-0.46,0.30
19,1714686026748,-5.39,-5.55,12.56,1.23,-0.70,0.37
19,1714686026781,-5.33,-5.89,12.63,1.53,-0.82,0.46
19,1714686026812,-4.89,-5.73,12.63,1.93,-0.89,0.54
19,1714686026846,-4.88,-5.18,12.30,2.34,-0.92,0.59
19,1714686026880,-4.90,-4.58,11.72,2.66,-1.13,0.63
19,1714686026913,-4.14,-4.21,11.03,2.96,-0.99,0.64
19,1714686026947,-5.23,-2.87,10.59,3.17,-1.14,0.72
19,1714686026980,-3.89,-3.17,10.16,3.43,-1.20,0.87
19,1714686027014,-3.42,-2.29,8.87,3.72,-0.95,0.82
19,1714686027046,-4.37,-1.16,8.25,3.89,-1.05,0.91
19,1714686027080,-4.19,-1.33,6.91,4.14,-1.78,0.98
19,1714686027112,-0.21,0.26,4.04,4.37,-1.38,0.90
19,1714686027144,1.26,2.49,1.80,4.03,-0.05,0.74
19,1714686027177,-0.82,2.97,2.80,3.72,-0.40,0.82
19,1714686027210,2.95,4.29,1.51,2.54,-0.83,0.61
19,1714686027243,3.41,4.78,-1.17,1.61,0.40,0.12
19,1714686027276,2.16,6.45,-0.82,0.66,0.65,-0.17
19,1714686027309,1.97,6.44,0.00,-0.57,0.27,-0.27
19,1714686027342,2.91,5.53,1.62,-1.55,0.52,-0.69
19,1714686027375,0.97,4.01,2.46,-2.03,0.98,-1.11
19,1714686027408,-0.23,3.88,4.84,-2.42,1.10,-1.22
19,1714686027441,-2.68,3.41,6.79,-3.09,1.00,-1.27
19,1714686027473,-2.15,1.44,6.51,-3.41,1.11,-1.36
19,1714686027505,-2.34,0.36,9.16,-3.27,1.06,-1.28
19,1714686027538,-4.87,0.43,10.54,-3.50,1.15,-1.38
19,1714686027570,-5.26,-1.21,11.29,-3.61,0.88,-1.39
19,1714686027603,-3.40,-2.89,12.16,-3.14,0.87,-1.21
19,1714686027636,-5.09,-2.87,12.18,-2.32,1.35,-1.18
19,1714686027669,-7.70,-2.48,12.22,-2.46,0.82,-1.20
19,1714686027702,-4.93,-4.08,12.92,-2.30,0.29,-0.97
19,1714686027735,-3.93,-4.89,12.28,-1.36,1.07,-0.78
19,1714686027767,-5.32,-3.61,12.03,-1.23,1.34,-0.75
19,1714686027799,-6.41,-4.70,13.43,-1.26,0.64,-0.72
19,1714686027831,-4.38,-5.48,12.09,-0.58,0.37,-0.57
19,1714686027864,-5.76,-4.55,10.78,-0.03,1.01,-0.52
19,1714686027897,-6.76,-4.30,11.05,-0.23,0.67,-0.32
19,1714686027930,-6.16,-4.43,10.64,-0.27,0.37,-0.22
19,1714686027964,-5.52,-4.50,9.62,-0.06,0.32,-0.14
19,1714686027997,-5.34,-4.08,8.69,0.06,0.26,-0.12
19,1714686028030,-5.33,-4.07,8.22,0.05,0.22,-0.10
19,1714686028062,-5.57,-4.71,8.27,0.14,-0.09,-0.03
19,1714686028095,-4.66,-4.74,7.55,0.26,-0.01,-0.06
19,1714686028130,-4.83,-4.51,7.20,0.24,0.10,-0.06
19,1714686028162,-5.56,-4.77,7.55,0.17,0.10,0.01
19,1714686028194,-4.98,-4.99,7.69,0.14,-0.06,0.02
19,1714686028227,-4.71,-4.90,7.70,0.13,-0.00,0.02
19,1714686028260,-4.72,-5.01,7.64,0.15,0.06,0.00
19,1714686028292,-5.04,-4.95,7.92,0.14,-0.01,-0.03
19,1714686028326,-4.88,-5.04,7.94,0.14,-0.05,-0.01
19,1714686028358,-4.97,-5.02,7.69,0.20,0.02,-0.04
19,1714686028391,-5.03,-4.92,7.69,0.21,0.02,-0.03
19,1714686028423,-5.01,-4.91,7.65,0.19,-0.03,-0.02
19,1714686028455,-4.84,-4.96,7.56,0.20,-0.01,-0.04
19,1714686028488,-4.80,-4.84,7.69,0.21,0.03,-0.04
19,1714686028520,-5.01,-4.87,7.73,0.19,0.01,-0.02
19,1714686028553,-4.86,-4.85,7.55,0.19,0.01,-0.02
19,1714686028585,-4.77,-4.70,7.58,0.17,0.03,-0.03
20,1714686031619,-4.94,-4.91,7.61,0.17,0.02,-0.04
20,1714686031652,-4.99,-4.93,7.58,0.17,-0.01,-0.02
20,1714686031685,-4.87,-4.83,7.53,0.16,0.05,-0.00
20,1714686031719,-4.94,-4.85,7.60,0.14,0.08,-0.01
20,1714686031752,-5.07,-5.07,7.75,0.16,-0.02,-0.01
20,1714686031785,-4.69,-4.98,7.65,0.20,0.03,-0.01
20,1714686031818,-4.80,-4.84,7.65,0.21,0.14,-0.01
20,1714686031851,-5.19,-5.05,7.86,0.20,0.10,0.02
20,1714686031884,-4.87,-5.02,7.79,0.22,0.05,-0.03
20,1714686031917,-4.81,-4.84,7.71,0.22,0.11,-0.03
20,1714686031950,-5.01,-4.88,7.77,0.21,0.06,-0.04
20,1714686031984,-4.90,-4.91,7.70,0.21,0.04,-0.05
20,1714686032017,-4.87,-4.78,7.58,0.22,0.08,-0.07
20,1714686032050,-5.23,-4.88,7.59,0.23,0.09,-0.08
20,1714686032083,-5.28,-4.90,7.51,0.21,-0.02,-0.07
20,1714686032115,-5.04,-4.86,7.35,0.21,0.04,-0.04
20,1714686032147,-5.05,-4.82,7.43,0.19,0.10,-0.04
20,1714686032181,-5.22,-4.92,7.56,0.16,0.05,-0.04
20,1714686032214,-5.16,-4.92,7.59,0.15,-0.01,-0.02
20,1714686032248,-4.90,-4.91,7.63,0.17,0.02,-0.01
20,1714686032280,-5.01,-4.93,7.71,0.19,0.05,-0.04
20,1714686032314,-5.15,-4.97,7.69,0.19,-0.01,-0.05
20,1714686032349,-5.00,-4.95,7.51,0.19,-0.02,-0.04
20,1714686032382,-4.96,-4.95,7.48,0.19,0.04,-0.04
20,1714686032415,-5.08,-4.87,7.44,0.17,0.04,-0.04
20,1714686032448,-5.11,-4.88,7.53,0.16,-0.02,-0.04
20,1714686032482,-4.93,-4.94,7.55,0.15,-0.02,-0.03
20,1714686032515,-4.88,-5.00,7.55,0.16,0.04,-0.04
20,1714686032548,-5.10,-4.94,7.62,0.16,0.03,-0.05
20,1714686032581,-5.20,-4.97,7.62,0.16,-0.02,-0.04
20,1714686032614,-5.18,-4.95,7.42,0.15,-0.02,-0.02
20,1714686032648,-5.03,-4.93,7.46,0.13,-0.04,0.01
20,1714686032681,-5.04,-4.96,7.49,0.13,-0.02,-0.00
20,1714686032714,-4.87,-5.00,7.61,0.14,-0.02,-0.00
20,1714686032747,-4.93,-5.20,7.60,0.15,-0.03,-0.00
20,1714686032780,-4.94,-5.14,7.62,0.17,-0.00,-0.01
20,1714686032812,-4.98,-5.10,7.48,0.17,0.01,0.01
20,1714686032846,-4.87,-5.04,7.48,0.17,0.02,-0.00
20,1714686032880,-4.93,-5.10,7.54,0.18,0.02,-0.02
20,1714686032913,-4.99,-5.09,7.53,0.19,0.02,-0.02
20,1714686032946,-4.92,-4.94,7.37,0.18,0.02,-0.03
20,1714686032979,-4.96,-5.10,7.54,0.18,0.03,-0.05
20,1714686033012,-5.11,-4.98,7.48,0.19,0.02,-0.05
20,1714686033046,-5.14,-4.98,7.47,0.19,0.00,-0.04
20,1714686033079,-5.02,-5.08,7.47,0.18,0.01,-0.03
20,1714686033112,-5.00,-5.10,7.54,0.18,0.02,-0.03
20,1714686033146,-5.04,-5.05,7.61,0.18,0.00,-0.03
20,1714686033179,-4.95,-5.14,7.48,0.19,-0.01,-0.04
20,1714686033212,-4.98,-5.13,7.38,0.20,0.01,-0.04
20,1714686033245,-4.92,-5.08,7.43,0.19,0.01,-0.04
20,1714686033278,-4.96,-5.06,7.45,0.18,0.00,-0.04
20,1714686033312,-4.89,-5.13,7.49,0.18,-0.00,-0.04
20,1714686033345,-4.97,-5.10,7.50,0.18,0.03,-0.04
20,1714686033378,-5.06,-5.03,7.48,0.18,-0.01,-0.04
20,1714686033411,-4.91,-5.05,7.50,0.18,0.02,-0.04
20,1714686033445,-5.05,-5.07,7.56,0.19,0.02,-0.04
20,1714686033478,-5.04,-5.03,7.62,0.17,-0.01,-0.03
20,1714686033511,-4.92,-5.11,7.50,0.18,-0.01,-0.02
20,1714686033545,-4.94,-5.11,7.45,0.19,-0.03,-0.04
20,1714686033578,-4.93,-5.22,7.52,0.19,-0.03,-0.05
20,1714686033611,-4.88,-5.22,7.52,0.19,0.00,-0.03
20,1714686033644,-4.84,-5.25,7.44,0.19,0.00,-0.04
20,1714686033677,-4.96,-5.19,7.53,0.19,-0.01,-0.04
20,1714686033712,-4.92,-5.20,7.47,0.20,0.01,-0.04
21,1714686036745,-4.82,-5.06,7.35,0.19,0.03,-0.04
21,1714686036778,-4.94,-5.08,7.39,0.18,0.00,-0.05
21,1714686036811,-4.91,-5.11,7.44,0.18,-0.00,-0.04
21,1714686036844,-5.00,-5.17,7.47,0.17,0.02,-0.04
21,1714686036877,-4.84,-5.13,7.51,0.17,0.01,-0.03
21,1714686036911,-4.90,-5.20,7.55,0.17,-0.01,-0.04
21,1714686036944,-4.81,-5.17,7.39,0.18,-0.01,-0.03
21,1714686036977,-4.86,-5.17,7.44,0.18,0.02,-0.04
21,1714686037011,-4.81,-5.19,7.41,0.17,0.00,-0.03
21,1714686037044,-4.88,-5.28,7.45,0.18,-0.01,-0.03
21,1714686037077,-4.81,-5.21,7.56,0.18,0.02,-0.03
21,1714686037110,-4.84,-5.22,7.48,0.19,0.02,-0.03
21,1714686037143,-4.87,-5.22,7.57,0.19,0.02,-0.04
21,1714686037175,-4.94,-5.22,7.40,0.19,0.00,-0.04
21,1714686037208,-4.91,-5.28,7.51,0.19,0.01,-0.02
21,1714686037241,-4.73,-5.25,7.45,0.19,0.01,-0.01
21,1714686037275,-4.75,-5.24,7.50,0.20,0.01,-0.03
21,1714686037308,-4.88,-5.17,7.38,0.19,0.02,-0.03
21,1714686037341,-4.88,-5.25,7.50,0.20,0.03,-0.03
21,1714686037374,-4.78,-5.29,7.45,0.20,0.01,-0.02
21,1714686037407,-4.90,-5.21,7.47,0.20,0.02,-0.02
21,1714686037440,-4.94,-5.26,7.51,0.20,0.02,-0.03
21,1714686037473,-4.86,-5.23,7.52,0.20,0.01,-0.03
21,1714686037506,-4.86,-5.20,7.46,0.20,0.01,-0.03
21,1714686037538,-4.76,-5.12,7.45,0.19,0.01,-0.03
21,1714686037571,-4.85,-5.20,7.56,0.19,0.01,-0.04
21,1714686037603,-4.89,-5.18,7.45,0.20,0.01,-0.03
21,1714686037635,-4.88,-5.15,7.49,0.19,0.01,-0.03
21,1714686037669,-4.99,-5.11,7.58,0.16,-0.02,-0.02
21,1714686037702,-4.93,-5.24,7.75,0.17,-0.05,-0.02
21,1714686037734,-4.80,-5.31,8.14,0.17,-0.08,-0.03
21,1714686037767,-5.40,-5.11,8.55,0.20,-0.08,-0.02
21,1714686037800,-5.49,-5.12,9.45,0.22,-0.22,0.07
21,1714686037832,-5.20,-5.22,9.93,0.30,-0.09,0.14
21,1714686037865,-5.16,-5.43,10.55,0.44,0.06,0.22
21,1714686037897,-6.75,-5.50,11.91,0.62,-0.28,0.27
21,1714686037929,-6.67,-5.69,13.07,0.86,-0.36,0.50
21,1714686037961,-6.58,-6.51,14.02,1.32,-0.55,0.59
21,1714686037993,-7.95,-6.23,13.71,1.88,-0.77,0.69
21,1714686038026,-8.31,-6.33,13.33,2.32,-1.41,0.92
21,1714686038059,-6.21,-5.98,12.02,2.83,-1.20,1.04
21,1714686038092,-7.10,-4.88,10.63,3.37,-1.09,1.21
21,1714686038125,-7.46,-3.36,8.31,3.50,-1.09,1.46
21,1714686038158,-6.70,-2.66,8.45,3.73,-1.57,1.88
21,1714686038190,-3.21,-0.70,7.85,3.37,-0.80,1.95
21,1714686038222,-7.21,-1.03,9.56,2.73,-1.80,2.03
21,1714686038255,-4.12,-1.67,7.85,2.97,-3.63,1.97
21,1714686038288,2.31,0.15,6.94,3.43,-2.36,1.73
21,1714686038321,-2.17,0.98,7.70,3.36,-1.23,1.52
21,1714686038353,-1.56,0.87,6.74,3.60,-2.73,1.66
21,1714686038386,4.31,2.21,3.99,3.79,-1.58,1.35
21,1714686038418,3.70,3.71,1.89,3.46,-0.01,0.87
21,1714686038451,1.58,5.00,1.92,2.72,-0.80,0.76
21,1714686038483,4.91,5.34,0.03,2.00,-0.74,0.52
21,1714686038515,4.07,6.57,-0.21,1.32,-0.20,0.11
21,1714686038548,4.31,6.81,-0.10,0.56,0.04,-0.10
21,1714686038581,4.28,6.75,0.20,-0.05,0.13,-0.31
21,1714686038613,3.74,7.51,1.49,-0.55,0.36,-0.55
21,1714686038646,3.22,7.26,2.51,-0.91,0.56,-0.74
21,1714686038679,2.60,5.96,2.76,-1.12,0.57,-0.90
21,1714686038711,2.21,5.72,2.96,-1.39,1.00,-1.09
21,1714686038743,1.16,5.66,2.95,-1.64,1.46,-1.33
21,1714686038776,0.45,4.78,4.10,-2.01,1.40,-1.36
21,1714686038809,0.70,3.82,4.10,-2.32,1.54,-1.61
22,1714686041842,-2.07,4.17,5.60,-2.57,1.83,-1.70
22,1714686041875,-2.30,2.51,7.74,-3.00,1.27,-1.63
22,1714686041908,-2.89,0.33,8.16,-3.11,1.30,-1.84
22,1714686041940,-4.41,0.10,10.32,-3.17,1.21,-1.92
22,1714686041973,-4.30,-0.67,10.71,-3.15,0.66,-1.76
22,1714686042005,-4.21,-1.35,12.97,-3.57,0.47,-1.90
22,1714686042037,-4.40,-3.45,11.82,-3.12,1.11,-2.02
22,1714686042069,-4.10,-4.91,10.92,-2.14,1.56,-1.72
22,1714686042102,-4.41,-3.23,12.93,-1.79,2.33,-1.74
22,1714686042135,-8.61,-4.70,13.21,-1.69,2.20,-1.79
22,1714686042168,-8.77,-4.38,11.17,-1.42,1.22,-1.42
22,1714686042200,-7.13,-3.79,11.30,-1.34,0.35,-1.07
22,1714686042233,-5.21,-4.57,11.95,-1.22,0.59,-0.93
22,1714686042265,-6.58,-4.86,11.65,-0.94,0.66,-0.96
22,1714686042298,-7.76,-5.08,10.69,-0.68,0.21,-0.85
22,1714686042331,-5.59,-5.65,9.17,-0.40,0.04,-0.71
22,1714686042364,-4.73,-5.86,8.40,0.00,0.58,-0.52
22,1714686042397,-6.20,-5.69,7.40,0.16,0.80,-0.47
22,1714686042431,-6.26,-5.81,7.23,0.17,-0.15,-0.40
22,1714686042464,-4.92,-5.95,6.71,0.09,-0.17,-0.35
22,1714686042497,-4.94,-6.17,6.67,0.03,0.17,-0.28
22,1714686042531,-5.37,-6.26,7.03,0.04,0.31,-0.17
22,1714686042565,-5.31,-6.17,7.36,0.06,0.31,-0.08
22,1714686042598,-5.38,-6.14,7.30,0.10,0.24,-0.01
22,1714686042631,-5.07,-6.06,7.20,0.14,0.12,0.01
22,1714686042664,-4.91,-6.10,7.00,0.20,-0.01,0.01
22,1714686042698,-4.66,-6.04,6.88,0.22,0.02,-0.02
22,1714686042731,-4.64,-6.17,6.73,0.22,0.07,-0.01
22,1714686042765,-4.89,-6.04,6.64,0.18,0.05,-0.01
22,1714686042797,-4.86,-6.00,6.53,0.13,0.13,0.02
22,1714686042829,-4.78,-6.00,6.50,0.10,0.26,0.05
22,1714686042863,-5.28,-5.99,6.67,0.10,0.24,0.06
22,1714686042896,-5.20,-5.96,6.76,0.14,-0.04,0.04
22,1714686042930,-4.57,-6.07,6.56,0.14,-0.03,0.03
22,1714686042963,-4.69,-6.11,6.39,0.11,0.08,0.02
22,1714686042996,-5.07,-6.00,6.51,0.11,0.10,0.01
22,1714686043029,-4.89,-6.16,6.77,0.14,-0.07,-0.01
22,1714686043061,-4.62,-6.25,6.67,0.15,-0.03,-0.03
22,1714686043095,-4.80,-6.25,6.68,0.18,0.07,-0.04
22,1714686043129,-5.08,-6.18,6.85,0.19,0.03,-0.03
22,1714686043162,-4.75,-6.15,6.56,0.20,-0.01,-0.03
22,1714686043195,-4.83,-6.06,6.52,0.21,0.05,-0.05
22,1714686043228,-5.18,-5.96,6.48,0.20,0.06,-0.06
22,1714686043261,-4.96,-6.16,6.56,0.18,-0.01,-0.04
22,1714686043294,-4.96,-6.09,6.51,0.18,0.05,-0.03
22,1714686043327,-5.22,-6.02,6.47,0.18,0.03,-0.03
22,1714686043361,-5.08,-6.06,6.45,0.17,0.01,-0.01
22,1714686043394,-5.02,-6.14,6.45,0.17,-0.00,0.01
22,1714686043427,-5.09,-6.14,6.48,0.15,0.01,0.01
22,1714686043460,-5.33,-6.16,6.47,0.15,-0.03,0.03
22,1714686043493,-5.04,-6.22,6.44,0.15,-0.02,0.07
22,1714686043524,-4.88,-6.23,6.47,0.17,0.07,0.08
22,1714686043557,-4.47,-6.18,6.47,0.22,0.25,0.05
22,1714686043590,-5.18,-5.92,6.58,0.18,0.31,0.06
22,1714686043623,-5.60,-6.06,6.73,0.14,-0.14,0.04
22,1714686043655,-4.70,-6.14,6.59,0.13,-0.16,0.03
22,1714686043688,-4.64,-6.05,6.29,0.16,0.04,-0.03
22,1714686043721,-5.18,-6.02,6.39,0.16,0.05,-0.05
22,1714686043753,-5.40,-6.15,6.39,0.13,-0.05,-0.04
22,1714686043786,-5.07,-6.20,6.40,0.14,-0.04,-0.01
22,1714686043818,-4.98,-6.20,6.35,0.16,0.04,-0.02
22,1714686043850,-5.21,-6.26,6.50,0.16,0.03,-0.04
22,1714686043883,-5.25,-6.19,6.43,0.15,-0.04,-0.02
22,1714686043915,-4.96,-6.11,6.30,0.16,-0.01,-0.00
23,1714686046949,-5.04,-6.01,6.40,0.16,0.09,-0.01
23,1714686046982,-5.18,-6.09,6.34,0.18,0.13,0.01
23,1714686047014,-5.31,-6.12,6.34,0.17,0.03,-0.00
23,1714686047047,-5.04,-6.27,6.40,0.17,-0.05,0.00
23,1714686047080,-5.14,-6.35,6.36,0.19,0.01,-0.00
23,1714686047112,-5.18,-6.22,6.39,0.20,0.03,0.02
23,1714686047144,-5.03,-6.17,6.26,0.19,0.00,0.02
23,1714686047178,-4.93,-6.04,6.29,0.19,0.01,-0.01
23,1714686047212,-5.13,-6.06,6.36,0.19,0.02,-0.02
23,1714686047244,-5.40,-6.04,6.49,0.19,0.01,-0.03
23,1714686047276,-5.13,-6.08,6.31,0.18,-0.02,0.01
23,1714686047309,-5.20,-6.18,6.36,0.19,0.02,-0.01
23,1714686047341,-5.32,-6.11,6.37,0.20,0.01,-0.02
23,1714686047373,-5.18,-6.24,6.32,0.20,-0.01,-0.01
23,1714686047405,-5.12,-6.26,6.38,0.19,-0.01,0.01
23,1714686047438,-4.98,-6.18,6.42,0.20,0.03,0.01
23,1714686047471,-5.07,-6.17,6.31,0.22,0.04,-0.01
23,1714686047503,-5.03,-6.13,6.39,0.21,0.01,-0.03
23,1714686047536,-5.08,-6.09,6.19,0.20,0.01,-0.03
23,1714686047567,-4.97,-6.16,6.37,0.21,0.05,-0.05
23,1714686047600,-5.26,-6.11,6.30,0.21,0.03,-0.08
23,1714686047633,-5.22,-5.99,6.28,0.20,-0.00,-0.07
23,1714686047665,-5.23,-6.04,6.37,0.19,0.04,-0.04
23,1714686047698,-5.19,-6.07,6.26,0.19,0.03,-0.02
23,1714686047730,-5.27,-6.11,6.34,0.19,0.01,-0.04
23,1714686047762,-5.16,-6.13,6.23,0.19,-0.01,-0.02
23,1714686047795,-5.16,-6.13,6.34,0.19,0.01,-0.02
23,1714686047827,-5.16,-6.11,6.35,0.20,0.01,-0.02
23,1714686047860,-5.26,-6.16,6.39,0.19,-0.05,-0.00
23,1714686047893,-5.07,-6.20,6.42,0.20,-0.03,0.01
23,1714686047926,-5.00,-6.19,6.32,0.20,0.03,-0.02
23,1714686047958,-5.04,-6.22,6.34,0.21,0.02,-0.03
23,1714686047990,-5.04,-6.14,6.29,0.21,0.00,-0.03
23,1714686048022,-5.06,-6.04,6.30,0.19,0.01,-0.04
23,1714686048054,-5.15,-6.05,6.37,0.19,0.04,-0.05
23,1714686048087,-5.24,-6.11,6.46,0.18,0.00,-0.04
23,1714686048119,-5.17,-6.13,6.44,0.19,-0.00,-0.03
23,1714686048151,-5.15,-6.09,6.40,0.20,0.03,-0.03
23,1714686048184,-5.18,-6.11,6.40,0.21,0.01,-0.04
23,1714686048216,-5.13,-6.23,6.33,0.20,0.00,-0.03
23,1714686048248,-5.13,-6.12,6.44,0.20,0.02,-0.03
23,1714686048281,-5.12,-6.16,6.45,0.20,0.03,-0.02
23,1714686048313,-5.08,-6.09,6.27,0.20,0.01,-0.02
23,1714686048346,-5.17,-6.07,6.36,0.19,0.01,-0.03
23,1714686048378,-5.14,-6.10,6.36,0.19,-0.01,-0.03
23,1714686048410,-5.08,-6.18,6.37,0.19,0.01,-0.03
23,1714686048443,-5.22,-6.11,6.37,0.20,0.01,-0.01
23,1714686048475,-5.15,-6.07,6.44,0.19,-0.01,-0.02
23,1714686048507,-5.10,-6.15,6.35,0.18,0.00,-0.02
23,1714686048540,-5.09,-6.11,6.39,0.18,-0.01,-0.01
23,1714686048573,-5.13,-6.22,6.30,0.19,0.00,-0.03
23,1714686048605,-5.11,-6.36,6.49,0.20,0.01,-0.04
23,1714686048638,-5.15,-6.17,6.63,0.20,0.00,-0.03
23,1714686048670,-5.20,-6.16,6.58,0.21,0.01,-0.02
23,1714686048703,-5.30,-6.09,6.70,0.19,-0.02,-0.02
23,1714686048735,-5.16,-6.07,6.78,0.20,-0.08,-0.02
23,1714686048768,-5.13,-6.28,6.63,0.25,-0.07,-0.03
23,1714686048801,-5.34,-6.17,6.40,0.27,-0.05,-0.03
23,1714686048833,-5.51,-6.07,6.23,0.26,-0.14,0.02
23,1714686048865,-5.11,-6.10,6.33,0.22,-0.11,0.04
23,1714686048898,-5.12,-5.91,6.68,0.20,-0.08,0.04
23,1714686048930,-5.80,-6.09,7.45,0.18,-0.14,0.03
23,1714686048963,-5.71,-6.37,7.75,0.23,-0.31,0.11
23,1714686048996,-5.94,-6.38,8.68,0.30,-0.24,0.18
24,1714686052029,-7.07,-6.60,9.66,0.36,-0.27,0.34
24,1714686052062,-7.75,-6.62,11.53,0.41,-0.54,0.59
24,1714686052094,-8.22,-7.67,13.24,0.62,-0.69,0.88
24,1714686052127,-8.82,-8.33,13.03,1.32,-0.62,1.22
24,1714686052160,-8.07,-7.86,13.13,1.98,-1.03,1.47
24,1714686052192,-8.19,-7.37,12.43,2.57,-0.80,1.60
24,1714686052224,-8.98,-6.30,11.19,3.08,-1.31,1.93
24,1714686052257,-7.81,-5.92,9.91,3.33,-1.54,2.05
24,1714686052290,-6.97,-4.94,9.75,3.80,-2.06,2.12
24,1714686052322,-7.11,-3.37,8.69,3.78,-2.32,1.99
24,1714686052355,-5.88,-3.35,7.56,3.92,-3.29,2.01
24,1714686052389,-3.15,-1.96,6.31,4.37,-3.39,1.66
24,1714686052422,-0.92,-0.60,4.37,4.37,-2.20,1.56
24,1714686052455,-2.41,0.30,3.98,4.37,-1.71,1.73
24,1714686052487,1.60,1.85,1.90,4.25,-1.06,1.60
24,1714686052519,2.27,3.00,0.79,3.45,-0.03,1.40
24,1714686052552,1.41,4.28,0.93,2.47,-0.40,1.28
24,1714686052586,3.92,4.61,0.22,1.57,-0.22,0.99
24,1714686052619,4.03,5.08,0.46,0.89,0.00,0.58
24,1714686052652,4.42,5.64,0.92,0.09,0.18,0.13
24,1714686052685,3.97,5.46,1.81,-0.40,0.29,-0.26
24,1714686052718,3.97,6.40,3.06,-0.84,0.44,-0.62
24,1714686052750,3.19,6.29,4.24,-1.19,0.52,-0.96
24,1714686052782,1.90,5.69,5.38,-1.25,0.66,-1.16
24,1714686052815,0.99,6.06,4.78,-1.29,1.14,-1.28
24,1714686052848,-0.73,6.10,6.35,-1.61,1.18,-1.32
24,1714686052882,-1.15,5.06,7.05,-1.72,0.85,-1.25
24,1714686052915,-2.24,4.87,6.50,-1.85,1.11,-1.25
24,1714686052948,-2.57,4.55,7.89,-2.20,1.01,-1.15
24,1714686052981,-2.33,3.19,8.73,-2.15,0.72,-1.07
24,1714686053013,-2.65,3.24,8.89,-2.11,1.07,-1.20
24,1714686053047,-3.27,2.77,9.96,-2.36,0.86,-1.13
24,1714686053080,-2.77,0.98,9.84,-1.99,0.79,-1.08
24,1714686053113,-4.77,0.85,10.71,-1.97,1.12,-1.20
24,1714686053146,-5.26,0.80,10.86,-2.25,0.81,-1.06
24,1714686053179,-3.64,-0.81,10.76,-1.98,0.65,-0.88
24,1714686053213,-3.86,-0.99,12.55,-1.73,0.85,-0.99
24,1714686053246,-5.67,-1.65,11.84,-1.66,0.62,-1.01
24,1714686053279,-4.89,-2.25,11.73,-1.40,0.40,-0.76
24,1714686053312,-3.78,-2.27,12.35,-1.21,0.61,-0.74
24,1714686053346,-5.74,-3.11,11.85,-0.96,0.69,-0.82
24,1714686053379,-5.96,-2.91,11.02,-0.78,0.25,-0.58
24,1714686053412,-4.27,-2.82,11.10,-0.80,0.07,-0.56
24,1714686053445,-4.90,-3.56,10.71,-0.68,-0.15,-0.59
24,1714686053478,-4.83,-3.61,9.37,-0.48,-0.20,-0.50
24,1714686053511,-5.02,-3.81,9.37,-0.41,0.19,-0.37
24,1714686053544,-5.11,-4.43,9.63,-0.34,0.48,-0.24
24,1714686053577,-5.23,-4.41,9.52,-0.18,0.46,-0.20
24,1714686053610,-5.27,-4.44,9.30,-0.09,0.09,-0.15
24,1714686053644,-4.32,-4.59,8.69,0.02,0.06,-0.15
24,1714686053676,-4.29,-4.38,8.37,0.09,0.22,-0.15
24,1714686053708,-4.64,-4.48,8.60,0.09,0.21,-0.14
24,1714686053742,-4.39,-4.52,8.56,0.12,0.13,-0.13
24,1714686053775,-4.36,-4.39,8.73,0.14,0.17,-0.14
24,1714686053809,-4.82,-4.50,8.88,0.13,0.13,-0.13
24,1714686053842,-4.65,-4.53,8.94,0.15,0.05,-0.11
24,1714686053874,-4.45,-4.51,8.92,0.19,0.10,-0.10
24,1714686053907,-4.72,-4.42,8.73,0.18,0.08,-0.10
24,1714686053941,-4.61,-4.59,8.45,0.17,-0.11,-0.08
24,1714686053974,-4.33,-4.71,8.32,0.23,-0.07,-0.07
24,1714686054007,-4.56,-4.62,8.20,0.25,0.06,-0.07
24,1714686054040,-4.72,-4.57,8.10,0.24,-0.01,-0.03
24,1714686054072,-4.46,-4.66,8.10,0.26,-0.00,-0.03
24,1714686054104,-4.44,-4.54,8.16,0.25,0.04,-0.03
25,1714686057138,-4.38,-4.36,8.09,0.23,0.04,-0.03
25,1714686057171,-4.47,-4.36,8.28,0.21,0.01,-0.04
25,1714686057204,-4.49,-4.56,8.33,0.23,0.02,-0.04
25,1714686057237,-4.42,-4.53,8.23,0.24,0.03,-0.04
25,1714686057269,-4.41,-4.53,8.45,0.22,0.01,-0.04
25,1714686057302,-4.42,-4.63,8.43,0.23,-0.02,-0.03
25,1714686057334,-4.37,-4.64,8.37,0.25,0.02,-0.04
25,1714686057366,-4.45,-4.54,8.40,0.25,0.05,-0.05
25,1714686057399,-4.49,-4.51,8.41,0.21,-0.01,-0.05
25,1714686057432,-4.21,-4.47,8.23,0.23,0.01,-0.05
25,1714686057465,-4.20,-4.40,8.25,0.21,0.04,-0.07
25,1714686057497,-4.40,-4.48,8.18,0.20,0.02,-0.08
25,1714686057529,-4.44,-4.43,8.23,0.19,-0.01,-0.08
25,1714686057561,-4.42,-4.51,8.32,0.19,0.02,-0.07
25,1714686057594,-4.40,-4.38,8.40,0.20,0.02,-0.06
25,1714686057627,-4.51,-4.54,8.38,0.18,-0.03,-0.05
25,1714686057660,-4.56,-4.61,8.32,0.16,-0.01,-0.04
25,1714686057693,-4.43,-4.51,8.43,0.12,-0.05,0.02
25,1714686057725,-4.19,-4.67,8.27,0.12,-0.07,0.02
25,1714686057757,-4.18,-4.53,8.37,0.13,-0.03,-0.03
25,1714686057790,-4.32,-4.63,8.40,0.14,-0.03,-0.05
25,1714686057823,-4.44,-4.64,8.31,0.16,-0.01,-0.05
25,1714686057855,-4.41,-4.52,8.26,0.16,-0.01,-0.03
25,1714686057887,-4.35,-4.55,8.34,0.14,-0.02,-0.02
25,1714686057920,-4.27,-4.56,8.38,0.15,-0.04,-0.02
25,1714686057952,-4.30,-4.78,8.35,0.15,-0.03,-0.04
25,1714686057984,-4.43,-4.71,8.51,0.16,-0.04,-0.03
25,1714686058017,-4.22,-4.83,8.48,0.19,-0.03,-0.01
25,1714686058050,-3.99,-4.72,8.49,0.23,-0.02,-0.01
25,1714686058083,-3.96,-4.52,8.22,0.22,-0.01,-0.02
25,1714686058117,-3.94,-4.48,8.13,0.19,-0.01,-0.03
25,1714686058151,-3.91,-4.53,8.21,0.16,0.01,-0.06
25,1714686058183,-4.16,-4.57,8.18,0.15,-0.03,-0.07
25,1714686058217,-4.15,-4.66,8.28,0.16,0.00,-0.06
25,1714686058250,-4.36,-4.62,8.40,0.18,0.06,-0.04
25,1714686058283,-4.37,-4.64,8.39,0.17,0.01,-0.01
25,1714686058316,-4.17,-4.78,8.38,0.17,-0.00,-0.02
25,1714686058349,-4.20,-4.71,8.43,0.18,0.03,-0.02
25,1714686058382,-4.11,-4.63,8.45,0.15,0.01,-0.02
25,1714686058416,-4.13,-4.83,8.54,0.15,-0.02,-0.03
25,1714686058449,-4.08,-4.93,8.41,0.24,0.03,-0.03
25,1714686058482,-4.31,-4.71,8.02,0.26,0.06,-0.04
25,1714686058515,-4.23,-4.62,8.04,0.20,0.04,-0.03
25,1714686058547,-4.18,-4.69,8.16,0.17,0.04,-0.03
25,1714686058580,-4.18,-4.78,8.29,0.17,0.03,-0.03
25,1714686058612,-4.30,-4.78,8.33,0.17,0.02,-0.04
25,1714686058645,-4.27,-4.84,8.32,0.18,0.04,-0.03
25,1714686058677,-4.49,-4.80,8.47,0.18,0.01,-0.02
25,1714686058709,-4.27,-4.75,8.20,0.20,0.02,0.00
25,1714686058743,-4.17,-4.69,8.26,0.18,0.01,-0.01
25,1714686058775,-4.28,-4.70,8.28,0.16,-0.00,-0.02
25,1714686058808,-4.19,-4.77,8.25,0.17,0.03,-0.01
25,1714686058840,-4.12,-4.70,8.29,0.15,0.02,-0.02
25,1714686058873,-4.18,-4.76,8.36,0.13,-0.00,-0.04
25,1714686058905,-4.28,-4.85,8.45,0.20,0.02,-0.04
25,1714686058937,-4.17,-4.77,8.23,0.23,0.05,-0.04
25,1714686058969,-4.34,-4.76,8.23,0.23,0.04,-0.04
25,1714686059002,-4.25,-4.70,8.19,0.22,0.01,-0.02
25,1714686059035,-4.17,-4.70,8.26,0.19,0.01,-0.02
25,1714686059067,-4.24,-4.75,8.25,0.20,0.01,-0.03
25,1714686059100,-4.22,-4.72,8.37,0.20,0.01,-0.03
25,1714686059132,-4.34,-4.79,8.29,0.19,-0.00,-0.02
25,1714686059165,-4.21,-4.72,8.19,0.18,0.01,-0.02
25,1714686059197,-4.18,-4.78,8.32,0.19,0.00,-0.02
26,1714686062231,-4.20,-4.75,8.21,0.19,-0.00,-0.03
26,1714686062264,-4.24,-4.82,8.35,0.18,-0.01,-0.02
26,1714686062296,-4.17,-4.86,8.31,0.19,-0.01,-0.01
26,1714686062328,-4.16,-4.81,8.26,0.20,-0.01,-0.03
26,1714686062361,-4.11,-4.82,8.31,0.17,-0.03,-0.02
26,1714686062393,-4.12,-4.85,8.31,0.18,-0.02,-0.03
26,1714686062427,-4.13,-4.79,8.22,0.19,-0.02,-0.04
26,1714686062460,-4.13,-4.88,8.36,0.20,-0.01,-0.04
26,1714686062494,-4.15,-4.82,8.00,0.20,-0.01,-0.05
26,1714686062526,-4.22,-4.66,8.12,0.18,-0.02,-0.04
26,1714686062558,-4.15,-4.82,8.25,0.18,-0.01,-0.04
26,1714686062590,-4.11,-4.80,8.20,0.18,0.00,-0.05
26,1714686062623,-4.27,-4.82,8.28,0.18,0.00,-0.04
26,1714686062656,-4.15,-4.77,8.37,0.19,0.00,-0.03
26,1714686062689,-4.16,-4.80,8.46,0.19,0.00,-0.04
26,1714686062722,-4.20,-4.85,8.49,0.19,-0.01,-0.03
26,1714686062754,-4.13,-4.87,8.59,0.24,-0.01,-0.02
26,1714686062787,-4.14,-4.84,8.77,0.24,-0.04,-0.03
26,1714686062820,-4.13,-4.94,9.13,0.25,-0.05,-0.04
26,1714686062852,-4.24,-5.17,9.86,0.35,-0.09,-0.01
26,1714686062885,-4.44,-5.23,10.30,0.48,-0.07,0.01
26,1714686062918,-4.62,-5.08,10.73,0.61,-0.13,0.06
26,1714686062951,-4.77,-5.00,10.75,0.73,-0.32,0.15
26,1714686062983,-4.50,-4.87,10.96,0.83,-0.28,0.20
26,1714686063016,-5.21,-5.05,11.23,0.94,-0.13,0.35
26,1714686063049,-5.55,-4.70,11.64,1.04,-0.32,0.50
26,1714686063082,-5.41,-4.68,11.93,1.21,-0.72,0.64
26,1714686063115,-4.69,-4.09,12.01,1.43,-0.56,0.70
26,1714686063148,-6.12,-3.81,12.59,1.60,-0.74,0.90
26,1714686063180,-4.75,-3.59,11.87,1.89,-1.17,0.97
26,1714686063213,-5.06,-3.39,13.76,1.93,-1.33,0.96
26,1714686063246,-3.76,-3.54,12.54,2.46,-1.23,0.96
26,1714686063279,-3.00,-2.31,10.64,3.11,-0.71,0.97
26,1714686063312,-6.97,-1.28,12.07,2.85,-1.06,1.15
26,1714686063345,-4.13,-1.90,10.16,3.21,-1.22,1.37
26,1714686063378,-2.04,-0.26,8.90,3.93,-0.76,1.49
26,1714686063410,-6.82,0.96,9.84,3.47,-1.63,1.64
26,1714686063442,-3.19,-0.01,7.02,3.88,-3.21,1.80
26,1714686063476,3.53,1.95,4.28,4.09,-1.78,1.56
26,1714686063508,2.45,2.80,2.68,3.87,-0.03,1.31
26,1714686063540,-0.82,4.42,3.17,3.11,-1.18,1.31
26,1714686063572,4.55,4.21,1.92,2.72,-1.93,1.27
26,1714686063605,6.17,5.03,0.24,2.30,-0.63,0.72
26,1714686063638,3.75,6.38,0.62,1.71,-0.34,0.38
26,1714686063670,4.69,6.24,0.02,1.06,-0.39,0.21
26,1714686063703,4.87,6.33,-0.23,0.47,-0.08,-0.15
26,1714686063735,3.85,6.50,0.09,-0.02,0.32,-0.42
26,1714686063768,3.08,7.09,1.24,-0.64,0.25,-0.52
26,1714686063801,3.53,7.07,2.35,-1.08,0.52,-0.70
26,1714686063834,2.92,6.54,2.42,-1.24,0.99,-0.93
26,1714686063867,1.53,6.57,3.79,-1.46,1.07,-0.98
26,1714686063900,0.99,6.55,4.80,-1.77,1.09,-1.03
26,1714686063932,0.71,5.73,5.50,-1.90,1.41,-1.04
26,1714686063965,-0.31,4.60,6.16,-2.09,1.30,-1.09
26,1714686063999,-1.26,4.74,7.28,-2.32,1.26,-1.12
26,1714686064032,-1.31,4.19,8.76,-2.61,1.03,-1.06
26,1714686064065,-0.51,2.24,8.69,-2.49,1.08,-1.15
26,1714686064097,-1.81,2.66,9.93,-2.43,1.30,-1.23
26,1714686064129,-2.75,2.10,10.20,-2.78,0.87,-1.26
26,1714686064162,-2.29,0.27,11.16,-2.56,0.78,-1.25
26,1714686064195,-3.95,0.33,11.82,-2.36,0.80,-1.14
26,1714686064229,-3.86,-0.32,11.98,-2.55,0.36,-1.11
26,1714686064261,-3.40,-1.33,12.88,-2.24,0.35,-0.91
26,1714686064295,-3.56,-1.87,11.95,-2.07,0.74,-0.94
27,1714686067328,-4.46,-2.65,12.74,-2.11,0.35,-0.82
27,1714686067361,-4.83,-3.72,13.41,-1.63,0.21,-0.61
27,1714686067394,-4.31,-3.65,12.44,-1.27,0.48,-0.53
27,1714686067428,-4.13,-3.60,12.52,-1.08,0.54,-0.37
27,1714686067461,-3.82,-4.05,12.12,-0.57,0.11,-0.27
27,1714686067494,-2.83,-3.62,11.07,-0.28,0.31,-0.32
27,1714686067527,-3.60,-3.73,10.68,-0.21,0.53,-0.33
27,1714686067561,-3.77,-3.86,10.53,-0.00,0.32,-0.24
27,1714686067594,-3.43,-3.55,10.46,0.13,0.31,-0.23
27,1714686067628,-3.56,-3.57,10.09,0.18,0.40,-0.23
27,1714686067661,-4.07,-3.68,9.72,0.20,0.25,-0.20
27,1714686067694,-3.83,-3.77,9.68,0.23,0.11,-0.17
27,1714686067727,-3.74,-3.85,9.39,0.24,0.16,-0.15
27,1714686067760,-3.92,-3.83,9.30,0.25,0.14,-0.11
27,1714686067793,-3.74,-3.89,9.06,0.21,0.06,-0.10
27,1714686067825,-3.80,-3.97,9.04,0.20,0.06,-0.07
27,1714686067857,-3.71,-3.97,9.00,0.19,0.04,-0.06
27,1714686067889,-3.78,-3.99,8.89,0.16,0.02,-0.06
27,1714686067921,-3.68,-4.09,9.24,0.16,0.00,-0.04
27,1714686067954,-3.67,-4.10,9.21,0.19,0.06,-0.03
27,1714686067987,-3.83,-4.04,9.11,0.23,0.04,-0.03
27,1714686068020,-3.95,-4.03,9.22,0.21,0.01,-0.02
27,1714686068053,-3.75,-4.06,9.13,0.21,0.00,0.01
27,1714686068086,-3.64,-3.96,9.11,0.22,0.01,0.01
27,1714686068118,-3.76,-3.86,9.16,0.19,-0.02,0.01
27,1714686068151,-3.43,-3.98,9.16,0.19,-0.02,0.00
27,1714686068183,-3.61,-4.01,9.10,0.19,-0.00,-0.01
27,1714686068216,-3.74,-3.97,9.10,0.20,0.00,-0.02
27,1714686068248,-3.56,-4.01,9.16,0.21,-0.01,-0.01
27,1714686068280,-3.76,-3.92,8.91,0.21,-0.00,-0.01
27,1714686068313,-3.59,-3.90,8.91,0.19,-0.00,-0.00
27,1714686068345,-3.47,-3.91,8.88,0.18,0.01,-0.01
27,1714686068378,-3.51,-3.97,8.96,0.16,0.01,-0.02
27,1714686068411,-3.80,-3.95,8.91,0.16,0.02,-0.01
27,1714686068446,-3.65,-3.93,8.92,0.17,0.01,0.01
27,1714686068477,-3.57,-3.95,8.95,0.17,0.03,-0.01
27,1714686068510,-3.58,-3.93,8.96,0.14,0.02,-0.02
27,1714686068542,-3.69,-4.04,9.18,0.12,0.01,-0.02
27,1714686068575,-3.56,-4.06,9.14,0.14,0.00,-0.01
27,1714686068608,-3.53,-4.10,9.10,0.16,0.03,-0.02
27,1714686068641,-3.67,-4.04,9.00,0.18,0.01,-0.03
27,1714686068674,-3.73,-4.05,9.08,0.17,0.02,-0.03
27,1714686068708,-3.63,-4.02,9.00,0.17,0.02,-0.01
27,1714686068739,-3.52,-4.11,9.02,0.17,0.02,-0.02
27,1714686068772,-3.64,-3.98,8.80,0.17,0.02,-0.02
27,1714686068804,-3.62,-4.06,8.91,0.15,0.02,-0.03
27,1714686068836,-3.60,-4.11,8.93,0.15,0.05,-0.06
27,1714686068869,-3.68,-4.19,8.95,0.15,0.06,-0.07
27,1714686068901,-3.74,-4.25,9.13,0.16,0.03,-0.08
27,1714686068934,-3.71,-4.34,9.09,0.18,0.03,-0.08
27,1714686068967,-3.64,-4.29,8.91,0.19,0.03,-0.07
27,1714686068999,-3.62,-4.19,8.93,0.19,0.01,-0.06
27,1714686069031,-3.64,-4.17,8.91,0.19,0.01,-0.06
27,1714686069063,-3.56,-4.15,8.92,0.18,0.01,-0.06
27,1714686069096,-3.58,-4.06,8.97,0.17,0.03,-0.05
27,1714686069128,-3.63,-4.06,8.95,0.19,0.05,-0.06
27,1714686069160,-3.70,-4.00,9.01,0.16,0.04,-0.05
27,1714686069193,-3.58,-4.10,9.00,0.17,0.04,-0.04
27,1714686069225,-3.62,-4.13,9.02,0.20,0.06,-0.04
27,1714686069257,-3.65,-4.14,8.76,0.19,0.04,-0.05
27,1714686069289,-3.58,-4.15,8.71,0.18,0.07,-0.06
27,1714686069322,-3.70,-4.22,9.00,0.18,0.07,-0.06
27,1714686069355,-3.72,-4.23,8.95,0.18,0.04,-0.05
27,1714686069388,-3.70,-4.24,8.94,0.17,0.04,-0.04
28,1714686072421,-3.77,-4.34,8.96,0.18,0.04,-0.03
28,1714686072454,-3.84,-4.24,8.84,0.17,0.03,-0.03
28,1714686072486,-3.78,-4.16,8.91,0.16,0.03,-0.02
28,1714686072519,-3.67,-4.16,8.87,0.15,0.03,-0.02
28,1714686072552,-3.67,-4.27,8.91,0.16,0.02,-0.02
28,1714686072585,-3.79,-4.26,8.85,0.17,0.03,-0.02
28,1714686072617,-3.78,-4.30,8.93,0.18,0.02,-0.01
28,1714686072649,-3.79,-4.37,8.99,0.18,0.03,-0.01
28,1714686072682,-3.65,-4.27,8.78,0.21,0.05,-0.01
28,1714686072715,-3.59,-4.17,8.73,0.21,0.06,-0.01
28,1714686072748,-3.57,-4.32,8.70,0.22,0.08,-0.03
28,1714686072780,-3.63,-4.24,8.62,0.22,0.10,-0.04
28,1714686072812,-3.68,-4.23,8.67,0.21,0.09,-0.05
28,1714686072845,-3.76,-4.41,8.78,0.21,0.10,-0.06
28,1714686072877,-3.84,-4.34,8.89,0.21,0.07,-0.05
28,1714686072910,-3.70,-4.19,8.80,0.21,0.09,-0.05
28,1714686072942,-3.76,-4.30,8.83,0.21,0.10,-0.06
28,1714686072974,-3.87,-4.19,8.86,0.18,0.04,-0.06
28,1714686073007,-3.82,-4.22,8.80,0.17,0.03,-0.05
28,1714686073040,-3.90,-4.13,8.87,0.17,0.03,-0.04
28,1714686073072,-3.81,-4.16,8.85,0.18,0.03,-0.04
28,1714686073106,-3.88,-4.07,8.87,0.17,0.03,-0.03
28,1714686073139,-3.85,-4.16,8.95,0.17,0.05,-0.04
28,1714686073171,-3.93,-4.11,9.00,0.18,0.03,-0.05
28,1714686073203,-4.06,-4.11,8.95,0.18,-0.00,-0.03
28,1714686073236,-3.99,-4.24,9.15,0.19,-0.01,-0.01
28,1714686073270,-3.91,-4.30,9.21,0.23,-0.02,0.01
28,1714686073301,-3.79,-4.37,8.97,0.26,-0.01,0.00
28,1714686073333,-3.85,-4.34,8.84,0.28,-0.01,0.00
28,1714686073366,-3.88,-4.34,8.79,0.27,-0.00,0.00
28,1714686073398,-3.76,-4.48,8.71,0.26,0.01,-0.00
28,1714686073430,-3.68,-4.47,8.69,0.27,0.01,-0.02
28,1714686073463,-3.68,-4.31,8.54,0.25,0.02,-0.04
28,1714686073496,-3.74,-4.37,8.47,0.22,0.01,-0.05
28,1714686073528,-3.68,-4.30,8.41,0.21,0.04,-0.06
28,1714686073560,-3.68,-4.35,8.36,0.22,0.08,-0.08
28,1714686073592,-3.94,-4.22,8.49,0.18,0.07,-0.08
28,1714686073625,-3.94,-4.34,8.54,0.17,0.11,-0.07
28,1714686073657,-3.90,-4.29,8.70,0.17,0.12,-0.07
28,1714686073690,-3.89,-4.24,8.81,0.15,0.09,-0.07
28,1714686073722,-3.94,-4.18,8.80,0.14,0.06,-0.07
28,1714686073754,-4.02,-4.36,8.92,0.15,0.07,-0.07
28,1714686073786,-4.04,-4.42,8.82,0.17,0.07,-0.07
28,1714686073819,-4.16,-4.43,8.83,0.18,0.05,-0.06
28,1714686073852,-4.08,-4.33,8.71,0.19,0.05,-0.04
28,1714686073885,-3.92,-4.35,8.68,0.21,0.07,-0.03
28,1714686073918,-3.90,-4.33,8.70,0.21,0.07,-0.02
28,1714686073950,-3.95,-4.28,8.63,0.19,0.05,-0.02
28,1714686073983,-3.88,-4.32,8.67,0.19,0.06,-0.02
28,1714686074016,-3.84,-4.27,8.74,0.17,0.06,-0.02
28,1714686074049,-3.93,-4.40,8.99,0.15,0.02,-0.05
28,1714686074080,-4.03,-4.44,9.09,0.15,0.00,-0.04
28,1714686074113,-4.03,-4.53,8.91,0.16,-0.01,-0.03
28,1714686074146,-3.92,-4.47,8.98,0.16,-0.05,-0.02
28,1714686074178,-3.99,-4.46,8.96,0.16,-0.07,-0.02
28,1714686074211,-3.92,-4.42,8.68,0.19,-0.08,-0.02
28,1714686074245,-3.78,-4.41,8.68,0.20,-0.05,-0.03
28,1714686074278,-3.68,-4.36,8.36,0.18,-0.04,-0.05
28,1714686074309,-3.82,-4.33,8.35,0.16,-0.03,-0.06
28,1714686074343,-4.07,-4.41,8.51,0.13,-0.02,-0.05
28,1714686074374,-4.05,-4.48,8.72,0.11,-0.04,-0.02
28,1714686074407,-3.91,-4.52,8.67,0.11,-0.06,-0.01
28,1714686074439,-3.76,-4.48,8.76,0.14,-0.05,-0.01
28,1714686074472,-3.76,-4.50,8.75,0.14,-0.03,-0.01
29,1714686077506,-3.83,-4.58,8.89,0.14,-0.05,-0.01
29,1714686077538,-3.81,-4.66,8.99,0.16,-0.05,-0.03
29,1714686077570,-3.86,-4.52,8.99,0.15,-0.05,-0.03
29,1714686077603,-3.92,-4.59,9.01,0.17,-0.07,0.00
29,1714686077637,-3.80,-4.57,8.99,0.20,-0.08,0.01
29,1714686077668,-3.77,-4.50,9.00,0.22,-0.05,0.01
29,1714686077701,-3.84,-4.57,8.87,0.22,-0.09,0.01
29,1714686077734,-3.62,-4.51,8.89,0.22,-0.12,0.02
29,1714686077766,-3.61,-4.46,8.86,0.22,-0.08,0.03
29,1714686077798,-3.73,-4.34,9.15,0.20,-0.06,0.04
29,1714686077830,-4.19,-4.34,9.72,0.11,-0.10,0.10
29,1714686077863,-4.08,-4.68,11.15,0.09,-0.30,0.18
29,1714686077896,-4.11,-5.01,12.54,0.19,-0.24,0.22
29,1714686077928,-3.92,-5.34,13.59,0.44,-0.38,0.31
29,1714686077962,-4.07,-5.61,14.43,0.82,-0.47,0.35
29,1714686077995,-4.05,-5.81,14.28,1.49,-0.55,0.40
29,1714686078026,-4.72,-5.25,14.87,1.90,-0.53,0.44
29,1714686078059,-5.11,-5.29,14.39,2.41,-0.74,0.52
29,1714686078091,-4.70,-4.92,14.63,2.94,-0.89,0.58
29,1714686078124,-5.97,-4.86,13.75,3.57,-1.05,0.72
29,1714686078156,-5.43,-3.60,11.90,4.00,-1.16,0.80
29,1714686078189,-6.40,-3.13,11.79,4.18,-1.35,1.05
29,1714686078222,-5.48,-2.82,10.16,4.37,-1.94,1.18
29,1714686078255,-2.64,-2.09,7.56,4.37,-1.56,1.20
29,1714686078288,-3.45,-0.01,6.55,4.37,-1.29,1.32
29,1714686078320,-2.42,0.03,4.48,4.37,-1.34,1.51
29,1714686078353,0.97,1.73,2.90,4.37,-1.08,1.65
29,1714686078385,2.33,2.92,0.45,3.76,-0.60,1.47
29,1714686078417,1.72,4.68,-0.77,2.92,-0.48,1.23
29,1714686078450,3.78,4.65,-1.57,1.99,-0.90,1.15
29,1714686078483,4.65,5.02,-2.67,1.22,-0.31,0.75
29,1714686078515,4.53,5.26,-2.27,0.37,0.03,0.35
29,1714686078547,5.25,4.89,-2.12,-0.43,0.06,-0.02
29,1714686078580,5.72,5.72,-2.35,-1.03,0.60,-0.58
29,1714686078613,3.32,4.69,-3.44,-1.71,1.20,-1.10
29,1714686078645,1.83,2.96,-2.48,-2.71,1.53,-1.31
29,1714686078679,1.77,1.20,-2.01,-3.72,1.98,-1.63
29,1714686078710,0.52,-0.65,-1.35,-4.37,2.85,-2.14
29,1714686078743,-1.46,-2.60,3.61,-4.37,2.66,-2.45
29,1714686078776,-6.70,-5.33,9.34,-4.37,1.89,-2.88
29,1714686078808,-4.02,-7.94,13.09,-4.37,1.53,-2.37
29,1714686078840,-7.80,-9.26,15.12,-4.37,2.17,-2.01
29,1714686078873,-12.17,-9.14,19.61,-4.37,1.68,-1.87
29,1714686078906,-9.69,-9.57,18.48,-2.70,0.37,-1.02
29,1714686078938,-6.96,-7.43,17.19,-1.59,1.19,-0.54
29,1714686078970,-7.88,-6.36,16.49,-1.02,1.09,-0.31
29,1714686079002,-6.59,-6.19,14.27,-0.41,0.32,0.01
29,1714686079035,-4.64,-4.99,12.31,-0.05,0.20,0.02
29,1714686079067,-4.41,-4.78,11.41,-0.01,0.25,0.05
29,1714686079099,-3.87,-4.75,10.50,0.13,0.13,-0.01
29,1714686079132,-3.90,-4.42,9.58,0.28,0.10,-0.01
29,1714686079164,-3.97,-4.35,9.20,0.34,0.13,-0.01
29,1714686079197,-4.24,-4.34,8.69,0.28,0.15,-0.01
29,1714686079229,-4.82,-4.32,8.53,0.25,-0.02,0.00
29,1714686079262,-4.40,-4.35,8.48,0.24,-0.07,-0.00
29,1714686079294,-4.07,-4.54,8.23,0.23,-0.01,-0.00
29,1714686079327,-4.14,-4.55,8.26,0.22,0.01,-0.02
29,1714686079360,-4.06,-4.82,8.36,0.19,-0.08,-0.05
29,1714686079393,-3.95,-4.88,8.32,0.21,-0.03,-0.10
29,1714686079425,-4.24,-5.02,8.23,0.21,0.02,-0.10
29,1714686079458,-4.29,-4.97,8.20,0.21,-0.04,-0.11
29,1714686079491,-4.30,-5.04,8.15,0.19,-0.14,-0.12
29,1714686079525,-4.13,-5.14,8.15,0.20,-0.08,-0.13
29,1714686079558,-4.19,-5.12,8.16,0.21,-0.02,-0.10
30,1714686082593,-4.24,-5.08,8.03,0.20,-0.06,-0.09
30,1714686082626,-3.86,-5.02,8.14,0.19,-0.04,-0.08
30,1714686082659,-3.87,-4.83,8.04,0.19,0.04,-0.08
30,1714686082692,-3.83,-4.72,8.08,0.17,0.04,-0.10
30,1714686082725,-3.87,-4.69,8.15,0.16,0.03,-0.10
30,1714686082758,-4.03,-5.05,8.10,0.18,-0.01,-0.04
30,1714686082792,-3.98,-5.08,8.02,0.18,-0.00,-0.04
30,1714686082825,-4.10,-5.09,8.10,0.18,0.02,-0.04
30,1714686082858,-4.11,-5.03,8.13,0.18,0.01,-0.04
30,1714686082891,-4.18,-5.08,8.15,0.19,0.02,-0.03
30,1714686082924,-4.16,-5.04,8.14,0.19,0.04,-0.03
30,1714686082957,-4.19,-5.14,8.19,0.19,0.02,-0.02
30,1714686082990,-4.10,-5.11,8.15,0.19,0.01,-0.02
30,1714686083023,-4.12,-5.08,8.26,0.19,0.01,-0.01
30,1714686083056,-4.04,-5.17,8.27,0.18,-0.00,-0.01
30,1714686083087,-3.94,-5.29,8.26,0.20,-0.01,-0.01
30,1714686083120,-4.02,-5.18,8.16,0.21,-0.00,-0.02
30,1714686083152,-4.04,-5.11,8.13,0.21,-0.01,-0.02
30,1714686083185,-3.98,-5.04,8.07,0.19,-0.01,-0.02
30,1714686083217,-4.10,-5.08,8.26,0.17,-0.03,-0.02
30,1714686083251,-4.13,-5.19,8.37,0.18,-0.04,-0.01
30,1714686083284,-4.01,-5.03,8.79,0.19,-0.04,-0.00
30,1714686083315,-4.27,-5.03,9.75,0.16,-0.12,0.03
30,1714686083348,-4.98,-5.30,11.57,0.11,-0.34,0.07
30,1714686083380,-4.96,-6.23,13.61,0.31,-0.58,0.14
30,1714686083413,-5.35,-6.92,14.90,0.85,-0.62,0.29
30,1714686083447,-4.81,-7.00,14.82,1.52,-0.63,0.44
30,1714686083480,-5.64,-6.38,14.81,2.14,-0.75,0.57
30,1714686083512,-5.29,-6.05,14.08,2.49,-0.97,0.60
30,1714686083545,-5.45,-5.70,12.49,3.05,-1.19,0.72
30,1714686083578,-5.23,-4.65,11.84,3.20,-1.41,0.76
30,1714686083611,-4.70,-3.54,11.06,3.39,-1.53,0.75
30,1714686083645,-3.86,-3.16,10.17,3.63,-1.59,0.77
30,1714686083678,-3.76,-1.86,9.90,3.62,-1.44,0.85
30,1714686083711,-3.57,-1.36,9.73,3.73,-1.43,0.94
30,1714686083744,-2.50,-0.24,9.45,3.79,-1.31,1.04
30,1714686083776,-0.96,0.53,7.76,3.89,-1.48,1.12
30,1714686083809,0.55,1.63,6.03,3.75,-1.00,1.05
30,1714686083841,0.47,2.10,4.92,3.56,-0.83,1.04
30,1714686083875,1.69,2.67,2.86,3.34,-0.35,0.95
30,1714686083908,0.97,3.58,2.16,2.91,-0.26,0.79
30,1714686083940,1.91,4.80,1.26,2.21,-0.59,0.70
30,1714686083973,2.85,5.01,0.10,1.65,-0.18,0.53
30,1714686084005,1.83,6.05,0.63,1.12,-0.33,0.48
30,1714686084037,3.39,6.52,0.66,0.46,-0.19,0.28
30,1714686084070,4.15,6.86,0.88,0.05,0.38,-0.02
30,1714686084102,3.34,7.55,2.14,-0.38,0.40,-0.22
30,1714686084135,3.81,6.64,2.74,-0.77,0.31,-0.46
30,1714686084168,3.60,5.98,2.20,-1.06,0.83,-0.86
30,1714686084201,2.28,6.29,2.81,-1.39,1.08,-1.06
30,1714686084233,1.19,4.70,3.97,-1.85,0.97,-1.19
30,1714686084265,1.04,4.32,4.60,-2.14,1.22,-1.49
30,1714686084298,-0.09,4.24,5.26,-2.45,1.62,-1.57
30,1714686084330,-1.98,1.79,6.98,-3.06,1.06,-1.70
30,1714686084363,-2.09,1.09,7.99,-3.23,0.77,-1.84
30,1714686084397,-3.22,0.88,9.32,-3.38,0.98,-1.71
30,1714686084429,-4.07,-1.17,10.44,-3.49,0.85,-1.56
30,1714686084462,-4.64,-0.73,10.61,-3.53,0.98,-1.62
30,1714686084495,-4.37,-2.54,11.91,-3.28,1.05,-1.26
30,1714686084527,-6.39,-3.67,14.36,-2.91,1.07,-1.00
30,1714686084559,-5.94,-3.69,15.34,-2.61,0.28,-0.81
30,1714686084592,-4.49,-4.31,14.51,-1.91,0.50,-0.56
30,1714686084624,-4.38,-3.83,14.83,-1.45,0.81,-0.44
30,1714686084656,-5.14,-4.15,14.19,-1.16,0.33,-0.44
31,1714686087689,-3.77,-4.45,12.26,-0.58,0.27,-0.47
31,1714686087721,-4.21,-3.70,11.35,-0.36,0.50,-0.39
31,1714686087753,-4.48,-4.08,11.42,-0.26,0.48,-0.34
31,1714686087786,-4.56,-4.57,10.83,-0.02,0.26,-0.29
31,1714686087819,-4.24,-4.21,10.09,0.18,0.24,-0.22
31,1714686087852,-4.16,-4.21,9.66,0.23,0.27,-0.17
31,1714686087884,-4.34,-4.34,9.23,0.27,0.19,-0.14
31,1714686087917,-4.19,-4.15,8.84,0.26,0.10,-0.11
31,1714686087949,-4.19,-4.24,8.92,0.26,0.11,-0.09
31,1714686087981,-4.19,-4.27,8.71,0.27,0.12,-0.07
31,1714686088013,-4.14,-4.23,8.62,0.25,0.07,-0.06
31,1714686088046,-3.94,-4.21,8.50,0.24,0.09,-0.05
31,1714686088078,-4.04,-4.26,8.51,0.22,0.11,-0.05
31,1714686088111,-4.23,-4.22,8.61,0.17,0.04,-0.04
31,1714686088143,-4.11,-4.37,8.67,0.17,0.03,-0.03
31,1714686088177,-3.90,-4.37,8.66,0.18,0.06,-0.03
31,1714686088209,-4.05,-4.37,8.73,0.18,0.08,-0.04
31,1714686088241,-3.90,-4.36,8.83,0.19,0.04,-0.03
31,1714686088273,-4.04,-4.36,8.68,0.19,0.07,-0.03
31,1714686088305,-4.14,-4.32,8.66,0.20,0.06,-0.04
31,1714686088337,-3.90,-4.32,8.60,0.18,0.05,-0.04
31,1714686088370,-3.89,-4.43,8.67,0.19,0.06,-0.04
31,1714686088402,-4.02,-4.37,8.44,0.21,0.07,-0.05
31,1714686088435,-3.97,-4.30,8.50,0.20,0.08,-0.06
31,1714686088467,-4.13,-4.33,8.47,0.18,0.08,-0.06
31,1714686088499,-4.16,-4.36,8.53,0.16,0.05,-0.05
31,1714686088532,-3.97,-4.41,8.61,0.17,0.05,-0.04
31,1714686088564,-4.02,-4.38,8.61,0.17,0.09,-0.06
31,1714686088597,-4.09,-4.33,8.62,0.14,0.07,-0.06
31,1714686088629,-4.15,-4.44,8.64,0.14,0.05,-0.06
31,1714686088661,-4.23,-4.42,8.71,0.16,0.04,-0.04
31,1714686088694,-4.13,-4.43,8.55,0.17,0.05,-0.04
31,1714686088728,-4.32,-4.39,8.63,0.18,0.03,-0.04
31,1714686088760,-4.24,-4.42,8.55,0.18,0.02,-0.03
31,1714686088792,-4.16,-4.45,8.61,0.19,0.03,-0.02
31,1714686088825,-4.12,-4.37,8.53,0.21,0.03,-0.01
31,1714686088858,-4.20,-4.41,8.50,0.20,0.00,-0.01
31,1714686088891,-4.18,-4.40,8.46,0.22,0.03,-0.01
31,1714686088923,-4.13,-4.48,8.59,0.22,0.03,-0.00
31,1714686088955,-4.10,-4.59,8.70,0.24,0.02,-0.01
31,1714686088988,-4.08,-4.53,8.50,0.25,0.05,-0.01
31,1714686089021,-4.16,-4.38,8.48,0.23,0.02,-0.01
31,1714686089053,-4.05,-4.41,8.54,0.21,0.00,-0.01
31,1714686089086,-4.00,-4.32,8.60,0.20,0.01,-0.03
31,1714686089118,-4.10,-4.39,8.49,0.18,0.01,-0.04
31,1714686089151,-4.14,-4.38,8.44,0.18,-0.01,-0.04
31,1714686089183,-4.07,-4.40,8.46,0.18,0.02,-0.03
31,1714686089215,-4.18,-4.39,8.51,0.19,0.01,-0.04
31,1714686089248,-4.18,-4.45,8.47,0.19,0.01,-0.05
31,1714686089281,-4.31,-4.43,8.53,0.20,0.03,-0.03
31,1714686089314,-4.34,-4.42,8.49,0.19,0.01,-0.01
31,1714686089346,-4.15,-4.45,8.48,0.19,0.01,-0.01
31,1714686089378,-4.17,-4.44,8.55,0.20,0.00,-0.02
31,1714686089410,-4.06,-4.40,8.54,0.20,0.01,-0.02
31,1714686089443,-4.09,-4.45,8.54,0.20,0.02,-0.02
31,1714686089475,-4.05,-4.47,8.32,0.21,0.04,-0.04
31,1714686089507,-4.21,-4.36,8.43,0.19,0.03,-0.04
31,1714686089540,-4.20,-4.47,8.49,0.17,0.01,-0.04
31,1714686089572,-4.15,-4.44,8.62,0.18,0.03,-0.03
31,1714686089605,-4.20,-4.47,8.60,0.19,0.02,-0.03
31,1714686089639,-4.13,-4.42,8.58,0.20,0.02,-0.03
31,1714686089672,-4.24,-4.45,8.58,0.21,0.02,-0.03
31,1714686089706,-4.13,-4.38,8.56,0.22,0.02,-0.02
31,1714686089739,-4.15,-4.45,8.53,0.22,0.02,-0.02
32,1714686092772,-4.13,-4.34,8.45,0.21,0.02,-0.03
32,1714686092805,-4.18,-4.42,8.49,0.21,0.01,-0.02
32,1714686092838,-4.15,-4.53,8.51,0.21,0.02,-0.03
32,1714686092872,-4.22,-4.45,8.47,0.21,0.03,-0.03
32,1714686092905,-4.22,-4.38,8.42,0.21,0.02,-0.02
32,1714686092938,-4.09,-4.35,8.46,0.19,0.03,-0.03
32,1714686092971,-4.15,-4.51,8.48,0.18,0.01,-0.03
32,1714686093004,-4.25,-4.47,8.57,0.18,0.02,-0.03
32,1714686093037,-4.18,-4.44,8.58,0.18,0.02,-0.03
32,1714686093070,-4.22,-4.37,8.54,0.19,0.01,-0.03
32,1714686093102,-4.17,-4.45,8.59,0.19,0.01,-0.03
32,1714686093135,-4.24,-4.46,8.53,0.19,0.01,-0.02
32,1714686093169,-4.18,-4.40,8.42,0.18,0.01,-0.02
32,1714686093202,-4.21,-4.43,8.51,0.17,-0.01,-0.02
32,1714686093235,-4.09,-4.41,8.41,0.17,0.01,-0.02
32,1714686093268,-4.20,-4.48,8.48,0.18,0.01,-0.02
32,1714686093301,-4.16,-4.38,8.47,0.18,0.00,-0.02
32,1714686093335,-4.16,-4.43,8.45,0.18,0.02,-0.02
32,1714686093368,-4.14,-4.43,8.47,0.19,0.02,-0.01
32,1714686093401,-4.09,-4.50,8.59,0.18,0.01,-0.03
32,1714686093434,-4.15,-4.53,8.59,0.19,0.02,-0.03
32,1714686093466,-4.21,-4.51,8.57,0.20,0.01,-0.02
32,1714686093498,-4.20,-4.43,8.59,0.19,0.01,-0.02
32,1714686093531,-4.12,-4.46,8.53,0.18,0.01,-0.03
32,1714686093563,-4.07,-4.46,8.38,0.20,0.01,-0.03
32,1714686093595,-4.20,-4.43,8.39,0.18,0.01,-0.04
32,1714686093628,-4.15,-4.46,8.50,0.17,0.02,-0.03
32,1714686093660,-4.13,-4.51,8.53,0.18,0.01,-0.03
32,1714686093694,-4.23,-4.49,8.54,0.19,0.01,-0.04
32,1714686093727,-4.21,-4.51,8.49,0.19,0.00,-0.03
32,1714686093759,-4.19,-4.52,8.55,0.19,0.00,-0.03
32,1714686093792,-4.18,-4.50,8.55,0.20,0.01,-0.03
32,1714686093824,-4.24,-4.50,8.52,0.20,0.00,-0.02
32,1714686093857,-4.14,-4.54,8.47,0.20,-0.00,-0.01
32,1714686093890,-4.08,-4.50,8.51,0.19,-0.01,-0.01
32,1714686093924,-4.00,-4.45,8.47,0.19,0.00,-0.02
32,1714686093957,-4.00,-4.48,8.42,0.20,0.02,-0.04
32,1714686093989,-4.12,-4.48,8.36,0.19,0.02,-0.04
32,1714686094021,-4.10,-4.53,8.38,0.19,0.03,-0.03
32,1714686094054,-4.18,-4.60,8.40,0.19,0.02,-0.05
32,1714686094087,-4.18,-4.61,8.40,0.19,0.02,-0.04
32,1714686094119,-4.22,-4.46,8.33,0.18,0.03,-0.02
32,1714686094152,-4.02,-4.42,8.35,0.15,0.00,-0.03
32,1714686094185,-4.14,-4.55,8.52,0.15,0.01,-0.03
32,1714686094219,-4.18,-4.49,8.58,0.17,0.01,-0.03
32,1714686094252,-4.16,-4.49,8.59,0.18,0.02,-0.02
32,1714686094285,-4.18,-4.51,8.41,0.18,0.02,-0.03
32,1714686094318,-4.27,-4.49,8.40,0.19,0.03,-0.03
32,1714686094352,-4.19,-4.46,8.47,0.18,0.02,-0.02
32,1714686094385,-4.19,-4.50,8.59,0.17,0.02,-0.01
32,1714686094418,-4.19,-4.63,8.52,0.18,0.02,-0.01
32,1714686094450,-4.23,-4.51,8.36,0.17,0.01,-0.00
32,1714686094484,-4.11,-4.56,8.47,0.14,-0.00,0.01
32,1714686094517,-4.10,-4.64,8.49,0.12,0.01,0.02
32,1714686094550,-4.02,-4.71,8.45,0.13,-0.01,0.00
32,1714686094584,-3.98,-4.73,8.45,0.14,-0.01,-0.01
32,1714686094616,-4.02,-4.59,8.39,0.11,-0.00,-0.01
32,1714686094649,-4.02,-4.62,8.35,0.08,-0.00,0.00
32,1714686094682,-4.13,-4.62,8.44,0.00,0.02,-0.00
32,1714686094715,-4.13,-4.66,8.41,-0.06,-0.01,-0.02
32,1714686094748,-4.06,-4.77,8.30,-0.04,0.01,-0.04
32,1714686094781,-4.12,-5.04,8.37,0.05,-0.03,-0.03
32,1714686094813,-4.14,-4.83,8.30,0.08,0.02,-0.04
32,1714686094846,-4.27,-4.83,8.27,0.06,0.02,-0.04
33,1714686097880,-4.25,-4.88,8.41,0.06,-0.05,-0.03
33,1714686097912,-4.20,-4.88,8.72,-0.01,-0.00,-0.04
33,1714686097945,-4.32,-4.77,9.21,-0.10,-0.09,-0.03
33,1714686097978,-4.53,-4.85,10.46,-0.33,-0.16,-0.02
33,1714686098010,-5.39,-5.46,12.91,-0.62,-0.44,0.01
33,1714686098043,-4.97,-6.42,14.16,-0.74,-0.74,0.20
33,1714686098075,-4.95,-7.40,13.85,-0.58,-0.22,0.32
33,1714686098108,-6.17,-8.50,13.47,-0.21,-0.04,0.54
33,1714686098141,-6.73,-9.05,14.09,1.06,0.52,1.03
33,1714686098173,-7.58,-9.84,13.12,2.32,0.91,1.77
33,1714686098205,-8.38,-7.83,11.56,2.99,0.80,1.96
33,1714686098238,-10.66,-7.39,10.83,3.29,-0.38,2.38
33,1714686098271,-7.61,-6.05,6.64,3.80,-2.35,1.82
33,1714686098304,-7.20,-4.33,6.36,3.85,-3.10,1.62
33,1714686098337,-6.69,-4.37,5.76,3.91,-3.74,1.17
33,1714686098370,-3.38,-3.01,4.36,4.06,-4.00,0.98
33,1714686098402,-0.09,-0.45,4.46,4.17,-2.27,1.41
33,1714686098434,-1.90,0.10,4.17,3.98,-1.32,1.54
33,1714686098466,-2.20,1.76,6.92,4.06,-2.37,1.53
33,1714686098498,2.41,4.08,3.75,3.52,-1.66,1.02
33,1714686098531,1.44,3.25,3.60,3.03,-0.70,1.11
33,1714686098563,2.87,5.06,3.06,3.01,-1.54,1.14
33,1714686098597,3.24,5.86,2.62,2.12,-0.37,0.79
33,1714686098630,2.87,5.70,1.73,1.71,0.05,0.52
33,1714686098662,3.57,7.40,2.12,1.29,-0.25,0.52
33,1714686098695,3.60,7.21,1.90,0.49,-0.11,0.43
33,1714686098747,3.77,6.48,1.63,0.09,0.09,0.10
33,1714686098789,3.95,5.92,2.55,-0.08,-0.02,-0.02
33,1714686098821,4.77,5.75,3.04,-0.34,0.18,-0.34
33,1714686098854,4.48,5.67,2.55,-0.53,0.66,-0.79
33,1714686098887,2.26,6.34,4.09,-0.74,0.53,-0.95
33,1714686098919,2.81,5.45,5.76,-1.04,0.14,-0.95
33,1714686098951,2.57,6.57,6.08,-1.04,0.62,-1.16
33,1714686098983,1.64,7.04,7.66,-0.99,0.86,-1.24
33,1714686099016,-0.52,6.71,8.11,-0.94,1.07,-1.24
33,1714686099049,-0.85,7.35,8.77,-0.98,0.75,-1.12
33,1714686099080,-0.78,7.07,8.86,-0.93,0.68,-1.01
33,1714686099113,-1.53,6.05,8.08,-1.03,0.65,-0.97
33,1714686099147,-1.85,5.84,8.32,-1.10,0.63,-0.87
33,1714686099178,-1.96,5.21,7.53,-1.12,0.84,-0.78
33,1714686099211,-2.21,4.21,8.19,-1.34,0.89,-0.73
33,1714686099244,-1.91,4.66,9.17,-1.48,0.61,-0.72
33,1714686099277,-1.68,4.05,8.70,-1.42,0.77,-0.75
33,1714686099309,-2.17,3.02,10.28,-1.64,0.59,-0.81
33,1714686099341,-2.51,1.84,11.19,-1.45,0.49,-0.91
33,1714686099373,-1.94,1.19,11.48,-1.29,0.46,-0.98
33,1714686099405,-1.53,1.39,11.29,-1.10,0.67,-1.12
33,1714686099438,-3.92,1.68,10.79,-0.83,0.91,-1.16
33,1714686099471,-4.87,1.52,10.25,-0.94,0.53,-0.97
33,1714686099504,-4.18,1.35,10.65,-1.06,0.53,-0.92
33,1714686099536,-4.51,0.99,10.40,-1.02,0.70,-0.87
33,1714686099569,-5.39,0.57,10.46,-1.16,0.33,-0.75
33,1714686099601,-4.45,-0.09,10.89,-1.21,0.18,-0.65
33,1714686099634,-4.89,-0.67,10.52,-0.96,0.48,-0.60
33,1714686099667,-5.88,-0.56,10.07,-0.99,0.25,-0.40
33,1714686099700,-4.13,-1.21,11.24,-1.06,0.08,-0.33
33,1714686099734,-3.80,-1.87,11.32,-0.68,0.40,-0.41
33,1714686099768,-5.20,-1.58,10.09,-0.48,0.30,-0.37
33,1714686099801,-4.44,-1.71,10.13,-0.55,0.00,-0.33
33,1714686099834,-3.45,-2.38,10.09,-0.45,0.17,-0.36
33,1714686099867,-4.62,-2.50,9.98,-0.24,0.29,-0.37
33,1714686099900,-4.80,-2.58,10.12,-0.23,0.12,-0.33
33,1714686099933,-4.91,-2.97,10.09,-0.17,0.29,-0.30
33,1714686099965,-5.84,-3.08,10.09,-0.09,0.16,-0.16
34,1714686103000,-5.02,-3.21,9.91,-0.01,0.03,-0.09
34,1714686103033,-4.60,-3.23,9.71,0.07,0.09,-0.07
34,1714686103065,-4.81,-3.22,9.68,0.12,0.06,-0.04
34,1714686103098,-4.55,-3.26,9.39,0.13,-0.08,-0.01
34,1714686103130,-4.18,-3.26,9.22,0.15,-0.03,-0.02
34,1714686103163,-4.25,-3.30,9.32,0.14,-0.06,-0.03
34,1714686103196,-4.27,-3.42,9.19,0.15,-0.11,-0.04
34,1714686103229,-4.17,-3.60,9.03,0.19,-0.02,-0.04
34,1714686103260,-4.30,-3.45,9.05,0.22,0.04,-0.04
34,1714686103294,-4.36,-3.42,8.80,0.21,-0.02,-0.01
34,1714686103325,-4.24,-3.50,8.88,0.20,-0.01,-0.02
34,1714686103358,-4.18,-3.31,8.70,0.19,0.02,-0.01
34,1714686103392,-4.15,-3.27,8.68,0.15,0.03,-0.03
34,1714686103423,-4.18,-3.34,8.87,0.16,0.04,-0.06
34,1714686103457,-4.15,-3.17,8.98,0.17,0.05,-0.07
34,1714686103489,-4.32,-3.19,8.99,0.18,0.06,-0.07
34,1714686103522,-4.39,-3.22,9.05,0.17,0.04,-0.06
34,1714686103554,-4.41,-3.32,9.06,0.18,0.03,-0.05
34,1714686103587,-4.33,-3.30,8.97,0.19,0.07,-0.05
34,1714686103620,-4.38,-3.24,8.99,0.17,0.05,-0.03
34,1714686103651,-4.31,-3.36,9.01,0.15,0.02,-0.02
34,1714686103685,-4.41,-3.39,9.03,0.15,0.01,-0.01
34,1714686103719,-4.32,-3.40,8.96,0.13,0.02,-0.01
34,1714686103751,-4.31,-3.38,8.99,0.13,0.02,-0.01
34,1714686103784,-4.44,-3.39,9.04,0.13,-0.01,-0.00
34,1714686103817,-4.28,-3.45,8.97,0.15,0.02,0.00
34,1714686103849,-4.37,-3.42,8.97,0.17,0.05,-0.00
34,1714686103882,-4.22,-3.52,8.85,0.17,0.05,-0.02
34,1714686103916,-4.29,-3.51,9.02,0.19,0.03,-0.01
34,1714686103948,-4.26,-3.51,8.90,0.18,0.01,-0.01
34,1714686103982,-4.32,-3.48,8.93,0.18,0.03,-0.02
34,1714686104014,-4.26,-3.53,8.77,0.18,0.05,-0.03
34,1714686104046,-4.47,-3.42,8.95,0.18,0.03,-0.04
34,1714686104079,-4.48,-3.46,8.87,0.17,0.00,-0.03
34,1714686104112,-4.36,-3.36,8.83,0.18,0.02,-0.00
34,1714686104146,-4.35,-3.36,8.87,0.15,0.01,-0.01
34,1714686104179,-4.53,-3.41,8.95,0.13,-0.03,0.00
34,1714686104212,-4.47,-3.55,8.94,0.15,-0.04,0.01
34,1714686104245,-4.26,-3.52,8.95,0.18,0.00,0.01
34,1714686104277,-4.21,-3.56,8.95,0.19,0.01,-0.01
34,1714686104310,-4.25,-3.50,8.86,0.18,-0.01,-0.02
34,1714686104344,-4.28,-3.49,8.84,0.18,0.01,-0.02
34,1714686104376,-4.22,-3.49,8.84,0.17,0.02,-0.03
34,1714686104409,-4.26,-3.51,8.76,0.18,0.03,-0.04
34,1714686104442,-4.37,-3.61,8.83,0.17,0.00,-0.03
34,1714686104475,-4.35,-3.56,8.88,0.17,0.03,-0.03
34,1714686104508,-4.34,-3.53,8.83,0.19,0.04,-0.03
34,1714686104542,-4.40,-3.52,8.89,0.18,0.03,-0.04
34,1714686104575,-4.39,-3.54,8.89,0.19,0.04,-0.03
34,1714686104608,-4.60,-3.60,8.83,0.19,0.00,-0.01
34,1714686104640,-4.35,-3.59,8.77,0.20,0.04,-0.01
34,1714686104673,-4.45,-3.43,8.81,0.18,0.03,-0.01
34,1714686104705,-4.29,-3.56,8.75,0.17,0.00,-0.00
34,1714686104737,-4.30,-3.57,8.61,0.15,-0.00,-0.01
34,1714686104769,-4.24,-3.51,8.61,0.12,0.01,-0.01
34,1714686104802,-4.37,-3.51,8.61,0.10,0.01,-0.02
34,1714686104836,-4.35,-3.58,8.71,0.07,-0.02,-0.02
34,1714686104869,-4.30,-3.55,8.76,0.07,0.02,-0.01
34,1714686104901,-4.46,-3.62,8.91,0.06,-0.01,-0.02
34,1714686104933,-4.41,-3.63,8.89,0.05,-0.04,-0.01
34,1714686104966,-4.49,-3.78,8.90,0.08,-0.01,-0.01
34,1714686104998,-4.46,-3.80,8.95,0.08,-0.03,0.01
34,1714686105031,-4.27,-3.93,9.02,0.11,-0.03,0.01
34,1714686105064,-4.14,-3.86,8.77,0.17,0.03,-0.00
35,1714686108098,-4.27,-3.81,8.61,0.16,0.01,0.00
35,1714686108131,-4.29,-3.79,8.75,0.12,0.01,-0.01
35,1714686108164,-4.31,-3.81,8.74,0.12,0.00,-0.02
35,1714686108196,-4.31,-3.96,8.88,0.12,-0.00,-0.01
35,1714686108229,-4.26,-3.93,8.84,0.13,-0.01,-0.01
35,1714686108262,-4.17,-4.01,8.89,0.15,0.00,-0.02
35,1714686108294,-4.27,-3.95,8.80,0.18,0.00,-0.04
35,1714686108327,-4.36,-3.93,8.76,0.19,0.02,-0.03
35,1714686108361,-4.26,-3.93,8.84,0.17,-0.00,-0.04
35,1714686108393,-4.29,-3.92,8.75,0.17,-0.01,-0.05
35,1714686108427,-4.42,-3.92,8.77,0.20,0.01,-0.04
35,1714686108460,-4.39,-3.88,8.66,0.19,-0.01,-0.03
35,1714686108493,-4.22,-3.96,8.63,0.19,-0.00,-0.04
35,1714686108527,-4.19,-3.99,8.67,0.19,0.02,-0.04
35,1714686108560,-4.23,-3.98,8.75,0.19,0.05,-0.04
35,1714686108593,-4.40,-3.91,8.84,0.13,-0.04,-0.03
35,1714686108626,-4.04,-4.09,8.89,0.13,-0.06,-0.05
35,1714686108659,-4.21,-3.96,8.74,0.14,0.02,-0.08
35,1714686108693,-4.39,-3.97,8.65,0.17,-0.01,-0.07
35,1714686108726,-4.15,-3.98,8.52,0.20,-0.01,-0.05
35,1714686108759,-4.22,-3.84,8.60,0.16,0.02,-0.05
35,1714686108793,-4.27,-4.00,8.51,0.17,0.00,-0.04
35,1714686108825,-4.28,-3.98,8.49,0.17,0.02,-0.02
35,1714686108857,-4.28,-3.96,8.59,0.13,0.02,-0.02
35,1714686108891,-4.34,-4.05,8.55,0.13,0.01,-0.02
35,1714686108925,-4.14,-4.06,8.63,0.15,0.00,-0.01
35,1714686108958,-4.18,-4.03,8.76,0.16,0.03,-0.02
35,1714686108991,-4.24,-4.12,8.85,0.15,0.02,-0.03
35,1714686109024,-4.12,-4.07,8.83,0.16,0.01,-0.03
35,1714686109057,-4.26,-4.03,8.88,0.17,0.00,-0.04
35,1714686109090,-4.42,-4.01,9.30,0.15,-0.03,-0.02
35,1714686109123,-5.15,-3.91,10.41,0.07,-0.13,0.03
35,1714686109156,-5.89,-3.57,12.11,-0.11,-0.43,0.14
35,1714686109190,-7.09,-4.17,14.52,-0.23,-0.89,0.37
35,1714686109223,-7.14,-5.16,17.83,0.05,-1.19,0.76
35,1714686109256,-6.78,-6.38,19.61,0.51,-1.76,1.01
35,1714686109290,-4.81,-8.10,19.61,1.56,-2.06,1.07
35,1714686109323,-5.09,-8.90,19.61,3.09,-1.83,0.97
35,1714686109356,-6.93,-8.11,17.61,4.31,-1.99,0.91
35,1714686109389,-7.18,-9.07,13.43,4.37,-2.76,1.05
35,1714686109422,-4.07,-7.06,6.71,4.37,-2.31,0.99
35,1714686109455,-2.04,-5.09,2.16,4.37,-0.79,1.06
35,1714686109488,-3.60,-2.93,-1.08,4.37,-1.26,1.34
35,1714686109520,-0.31,-2.46,-4.55,4.37,-1.44,1.20
35,1714686109552,1.56,-1.50,-7.44,3.94,-0.33,0.87
35,1714686109585,1.43,-0.22,-9.05,2.46,0.24,0.49
35,1714686109617,2.89,1.10,-10.24,0.63,0.46,-0.07
35,1714686109650,3.46,1.66,-10.25,-1.61,1.50,-0.70
35,1714686109683,2.95,-0.48,-7.79,-3.77,2.74,-1.42
35,1714686109715,1.32,-2.87,-3.11,-4.37,3.66,-2.27
35,1714686109748,-2.56,-6.23,6.28,-4.37,2.52,-2.79
35,1714686109780,-3.95,-8.43,14.05,-4.37,2.19,-2.82
35,1714686109814,-7.78,-11.75,19.61,-4.37,2.06,-2.34
35,1714686109846,-13.55,-9.28,19.61,-3.92,1.63,-1.88
35,1714686109878,-9.45,-7.13,19.61,-2.33,0.53,-1.61
35,1714686109911,-7.30,-6.30,16.60,-1.52,0.90,-1.26
35,1714686109944,-8.53,-5.82,14.55,-0.81,0.95,-0.74
35,1714686109977,-7.06,-5.35,13.40,-0.34,0.39,-0.62
35,1714686110009,-5.55,-5.14,12.44,-0.14,0.37,-0.44
35,1714686110044,-6.17,-4.37,10.42,0.19,0.50,-0.31
35,1714686110076,-5.23,-4.59,9.60,0.29,0.24,-0.20
35,1714686110110,-5.11,-4.39,9.51,0.25,0.11,-0.12
35,1714686110142,-4.61,-4.61,9.08,0.32,0.12,-0.04
35,1714686110174,-4.77,-4.58,8.60,0.34,0.00,-0.01
36,1714686113207,-4.36,-4.53,8.09,0.34,-0.01,-0.00
36,1714686113240,-4.06,-4.71,7.91,0.36,0.07,0.03
36,1714686113273,-4.10,-4.55,7.78,0.39,0.12,0.04
36,1714686113307,-4.38,-4.38,7.89,0.32,0.03,0.01
36,1714686113339,-4.13,-4.69,8.14,0.26,0.01,-0.01
36,1714686113373,-4.35,-4.80,8.10,0.30,0.15,-0.04
36,1714686113405,-4.54,-4.56,8.06,0.32,0.13,-0.03
36,1714686113438,-4.67,-4.50,8.07,0.28,0.09,-0.02
36,1714686113471,-4.46,-4.54,7.96,0.24,0.10,-0.03
36,1714686113504,-4.72,-4.52,8.27,0.24,0.07,-0.03
36,1714686113537,-4.50,-4.56,8.20,0.25,0.06,-0.02
36,1714686113570,-4.55,-4.57,8.22,0.30,0.09,-0.03
36,1714686113603,-4.76,-4.47,8.23,0.30,0.10,-0.03
36,1714686113637,-4.77,-4.53,8.26,0.30,0.07,-0.02
36,1714686113670,-4.82,-4.49,8.08,0.31,0.05,0.00
36,1714686113703,-4.73,-4.35,8.14,0.29,0.06,0.01
36,1714686113736,-4.70,-4.26,8.10,0.23,0.04,0.00
36,1714686113770,-4.72,-4.30,7.88,0.19,0.06,0.00
36,1714686113804,-4.70,-4.26,8.07,0.14,0.02,0.00
36,1714686113837,-4.46,-4.48,8.37,0.14,-0.02,-0.01
36,1714686113869,-4.50,-4.58,8.36,0.17,0.05,-0.03
36,1714686113902,-4.72,-4.50,8.41,0.22,0.05,-0.04
36,1714686113936,-4.62,-4.45,8.15,0.23,0.04,-0.04
36,1714686113969,-4.65,-4.41,8.07,0.22,0.07,-0.04
36,1714686114002,-4.79,-4.24,8.08,0.17,0.05,-0.05
36,1714686114035,-4.80,-4.47,8.25,0.14,0.05,-0.04
36,1714686114068,-4.78,-4.52,8.39,0.18,0.04,-0.04
36,1714686114101,-4.85,-4.43,8.25,0.20,0.04,-0.03
36,1714686114134,-4.92,-4.44,8.26,0.20,0.02,-0.01
36,1714686114166,-4.72,-4.43,8.24,0.22,0.03,-0.01
36,1714686114199,-4.71,-4.41,7.97,0.22,0.02,-0.01
36,1714686114231,-4.91,-4.36,7.98,0.19,0.00,-0.01
36,1714686114264,-4.60,-4.41,8.12,0.17,0.02,-0.03
36,1714686114297,-4.70,-4.52,8.13,0.18,0.03,-0.03
36,1714686114329,-4.82,-4.40,8.20,0.20,0.04,-0.04
36,1714686114363,-4.86,-4.37,8.20,0.20,-0.00,-0.03
36,1714686114397,-4.73,-4.42,8.18,0.20,0.02,-0.03
36,1714686114429,-4.80,-4.45,8.14,0.20,0.02,-0.03
36,1714686114461,-4.72,-4.40,8.11,0.21,0.02,-0.03
36,1714686114494,-4.74,-4.39,8.16,0.20,0.01,-0.03
36,1714686114527,-4.65,-4.47,8.08,0.19,0.02,-0.03
36,1714686114559,-4.76,-4.46,8.08,0.19,0.03,-0.04
36,1714686114592,-4.81,-4.45,8.00,0.18,0.01,-0.04
36,1714686114624,-4.70,-4.43,8.14,0.19,-0.00,-0.05
36,1714686114657,-4.71,-4.41,8.06,0.19,0.05,-0.04
36,1714686114689,-4.72,-4.43,8.18,0.19,0.03,-0.04
36,1714686114722,-4.60,-4.45,8.17,0.18,0.02,-0.04
36,1714686114755,-4.71,-4.41,8.04,0.18,0.02,-0.05
36,1714686114787,-4.72,-4.43,8.11,0.18,0.02,-0.05
36,1714686114820,-4.77,-4.46,8.19,0.17,0.03,-0.05
36,1714686114853,-4.81,-4.55,8.08,0.18,0.01,-0.05
36,1714686114886,-4.81,-4.47,8.10,0.17,0.01,-0.04
36,1714686114918,-4.83,-4.47,8.10,0.15,-0.01,-0.04
36,1714686114951,-4.76,-4.60,8.13,0.15,-0.01,-0.04
36,1714686114984,-4.72,-4.63,8.11,0.18,0.03,-0.03
36,1714686115017,-4.72,-4.53,8.18,0.20,0.02,-0.02
36,1714686115050,-4.68,-4.57,8.08,0.20,0.01,-0.03
36,1714686115083,-4.59,-4.53,7.98,0.22,0.03,-0.03
36,1714686115115,-4.70,-4.46,8.01,0.20,0.02,-0.05
36,1714686115147,-4.76,-4.50,8.07,0.18,0.02,-0.03
36,1714686115180,-4.75,-4.47,8.07,0.19,0.03,-0.03
36,1714686115213,-4.68,-4.47,8.13,0.20,0.01,-0.02
36,1714686115246,-4.73,-4.59,8.09,0.20,0.02,-0.03
36,1714686115279,-4.74,-4.53,7.98,0.20,0.01,-0.02
37,1714686118314,-4.68,-4.54,8.02,0.20,0.03,-0.02
37,1714686118347,-4.86,-4.60,8.16,0.20,0.02,-0.03
37,1714686118381,-4.62,-4.58,8.09,0.22,-0.01,-0.01
37,1714686118414,-4.64,-4.47,8.03,0.21,0.04,-0.01
37,1714686118448,-4.67,-4.48,8.15,0.19,0.02,-0.03
37,1714686118481,-4.67,-4.58,8.14,0.20,0.01,-0.02
37,1714686118514,-4.73,-4.52,8.07,0.21,0.03,-0.02
37,1714686118548,-4.70,-4.48,8.04,0.21,0.03,-0.02
37,1714686118580,-4.77,-4.52,8.05,0.21,0.02,-0.03
37,1714686118614,-4.81,-4.52,7.96,0.20,0.01,-0.03
37,1714686118647,-4.73,-4.49,8.06,0.20,0.03,-0.02
37,1714686118680,-4.75,-4.53,8.12,0.20,0.03,-0.03
37,1714686118713,-4.70,-4.50,8.09,0.20,0.02,-0.04
37,1714686118746,-4.65,-4.51,8.00,0.19,0.02,-0.03
37,1714686118779,-4.73,-4.56,8.10,0.20,0.02,-0.04
37,1714686118812,-4.78,-4.53,8.00,0.21,0.03,-0.04
37,1714686118846,-4.85,-4.52,8.15,0.21,0.02,-0.03
37,1714686118879,-4.82,-4.50,8.14,0.20,0.01,-0.02
37,1714686118912,-4.65,-4.55,8.03,0.21,0.01,-0.02
37,1714686118944,-4.76,-4.50,7.97,0.21,0.00,-0.04
37,1714686118977,-4.68,-4.57,8.12,0.20,0.00,-0.03
37,1714686119011,-4.70,-4.53,8.20,0.21,0.01,-0.02
37,1714686119044,-4.63,-4.56,8.12,0.21,0.01,-0.04
37,1714686119077,-4.79,-4.48,8.13,0.22,0.00,-0.04
37,1714686119110,-4.75,-4.40,8.02,0.21,0.01,-0.03
37,1714686119143,-4.74,-4.51,8.26,0.22,0.01,-0.02
37,1714686119176,-4.75,-4.51,8.08,0.22,0.00,-0.03
37,1714686119208,-4.69,-4.46,8.09,0.21,0.01,-0.03
37,1714686119240,-4.64,-4.48,8.12,0.20,0.02,-0.04
37,1714686119273,-4.73,-4.48,8.15,0.22,0.00,-0.04
37,1714686119307,-4.65,-4.48,8.11,0.22,0.00,-0.03
37,1714686119340,-4.66,-4.51,8.18,0.22,0.02,-0.03
37,1714686119373,-4.66,-4.49,8.18,0.23,0.01,-0.04
37,1714686119406,-4.80,-4.46,8.03,0.23,0.00,-0.03
37,1714686119439,-4.71,-4.48,8.11,0.22,0.01,-0.03
37,1714686119473,-4.72,-4.41,7.99,0.22,0.02,-0.02
37,1714686119505,-4.81,-4.44,8.04,0.21,-0.00,-0.02
37,1714686119539,-4.58,-4.47,8.10,0.20,0.01,-0.02
37,1714686119572,-4.65,-4.51,8.17,0.21,0.03,-0.03
37,1714686119605,-4.73,-4.45,8.06,0.20,0.02,-0.04
37,1714686119638,-4.68,-4.41,8.16,0.18,0.01,-0.04
37,1714686119671,-4.68,-4.58,8.24,0.21,0.03,-0.03
37,1714686119704,-4.82,-4.44,8.30,0.21,0.02,-0.04
37,1714686119736,-4.63,-4.45,8.20,0.21,-0.00,-0.03
37,1714686119769,-4.61,-4.48,8.04,0.22,0.02,-0.04
37,1714686119802,-4.65,-4.39,8.04,0.21,0.02,-0.04
37,1714686119835,-4.74,-4.41,8.11,0.20,0.02,-0.03
37,1714686119868,-4.61,-4.43,8.16,0.20,0.02,-0.03
37,1714686119901,-4.59,-4.51,8.12,0.21,0.02,-0.04
37,1714686119934,-4.78,-4.40,8.11,0.21,-0.00,-0.04
37,1714686119967,-4.73,-4.47,8.10,0.20,0.02,-0.03
37,1714686120000,-4.77,-4.44,8.18,0.20,0.03,-0.02
37,1714686120033,-4.60,-4.46,8.25,0.21,0.01,-0.02
37,1714686120065,-4.61,-4.43,8.14,0.20,0.02,-0.02
37,1714686120098,-4.62,-4.47,8.23,0.19,0.02,-0.03
37,1714686120130,-4.70,-4.50,8.34,0.21,0.03,-0.04
37,1714686120164,-4.62,-4.50,8.24,0.23,0.02,-0.03
37,1714686120196,-4.62,-4.38,8.17,0.23,0.03,-0.04
37,1714686120229,-4.72,-4.40,8.10,0.22,0.03,-0.04
37,1714686120262,-4.80,-4.41,8.08,0.21,0.02,-0.04
37,1714686120294,-4.68,-4.47,8.08,0.21,0.03,-0.03
37,1714686120326,-4.76,-4.40,8.03,0.21,0.02,-0.04
37,1714686120359,-4.79,-4.42,7.96,0.19,-0.01,-0.03
37,1714686120391,-4.71,-4.36,8.05,0.18,0.02,-0.02
38,1714686123424,-4.76,-4.41,8.40,0.18,0.04,-0.01
38,1714686123456,-4.47,-4.44,8.38,0.19,0.01,-0.02
38,1714686123489,-4.72,-4.55,8.62,0.22,0.00,-0.03
38,1714686123521,-4.72,-4.50,8.60,0.27,0.01,-0.03
38,1714686123554,-5.60,-4.45,8.69,0.29,-0.04,-0.01
38,1714686123586,-6.93,-4.66,8.96,0.30,-0.21,0.12
38,1714686123619,-6.20,-4.10,8.71,0.45,-0.18,0.28
38,1714686123651,-7.41,-3.78,8.94,0.48,-0.12,0.47
38,1714686123683,-7.64,-3.56,8.60,0.54,-0.43,0.68
38,1714686123715,-4.94,-3.33,8.10,0.62,-0.51,0.84
38,1714686123747,-3.40,-3.32,8.24,0.58,-0.04,0.86
38,1714686123780,-3.81,-3.43,8.62,0.49,-0.12,0.81
38,1714686123813,-2.22,-3.75,8.99,0.40,-0.19,0.63
38,1714686123846,-1.50,-3.89,9.40,0.33,0.12,0.31
38,1714686123880,-1.29,-4.15,9.61,0.60,-0.02,-0.04
38,1714686123913,-1.18,-3.95,9.54,0.69,0.06,-0.36
38,1714686123944,-3.02,-3.56,9.26,0.71,0.22,-0.66
38,1714686123976,-5.09,-2.93,8.96,0.70,0.11,-0.74
38,1714686124009,-6.90,-2.33,8.41,0.68,0.07,-0.62
38,1714686124041,-8.12,-1.47,7.98,0.64,0.17,-0.42
38,1714686124074,-9.67,-1.25,7.40,0.50,0.00,-0.00
38,1714686124107,-8.41,-1.29,6.88,0.24,-0.17,0.49
38,1714686124140,-6.52,-1.73,6.81,0.02,-0.14,0.77
38,1714686124172,-4.99,-2.43,7.75,-0.20,-0.23,0.88
38,1714686124204,-2.92,-3.32,9.13,-0.33,-0.26,0.78
38,1714686124237,-1.41,-4.36,10.59,-0.20,-0.15,0.52
38,1714686124270,-0.59,-4.81,11.09,0.21,0.09,0.16
38,1714686124302,-0.68,-4.36,10.77,0.61,0.21,-0.23
38,1714686124335,-1.65,-3.57,9.90,0.77,0.33,-0.62
38,1714686124368,-3.88,-2.97,9.26,0.74,0.30,-0.85
