Group_id,Time(ms),AccelX,AccelY,AccelZ,GyroX,GyroY,GyroZ
1,1715180533183,-1.21,0.02,10.66,0.20,0.02,-0.02
1,1715180533216,-3.86,-8.51,3.55,0.49,0.85,0.43
1,1715180533248,-4.13,-8.10,2.94,0.62,1.34,0.51
1,1715180533280,-4.69,-7.77,2.54,0.60,1.42,0.45
1,1715180533312,-4.82,-7.55,2.46,0.48,1.32,0.30
1,1715180533344,-4.97,-7.39,2.56,0.41,1.01,0.15
1,1715180533376,-4.98,-7.27,2.61,0.31,0.65,-0.05
1,1715180533408,-5.36,-7.38,2.61,0.18,0.33,-0.21
1,1715180533440,-5.47,-7.47,2.59,0.06,0.04,-0.30
1,1715180533473,-5.54,-7.95,2.85,0.02,-0.08,-0.36
1,1715180533505,-5.67,-8.31,2.70,0.08,-0.06,-0.33
1,1715180533537,-5.88,-8.30,2.56,0.14,-0.04,-0.25
1,1715180533569,-6.22,-8.12,2.59,0.12,-0.05,-0.17
1,1715180533601,-6.09,-8.11,2.51,0.09,-0.13,-0.08
1,1715180533634,-5.82,-8.04,2.70,0.12,-0.14,0.01
1,1715180533666,-5.65,-8.03,2.71,0.19,-0.05,0.08
1,1715180533698,-5.86,-7.83,2.54,0.20,-0.13,0.11
1,1715180533730,-5.81,-7.72,2.34,0.17,-0.38,0.07
1,1715180533762,-6.98,-7.08,1.81,0.02,-0.41,0.03
1,1715180533794,-13.52,-6.69,3.51,-0.50,-3.19,0.42
1,1715180533826,-4.47,-8.72,6.75,-0.92,-3.39,0.23
1,1715180533858,-2.96,-9.74,9.70,0.27,-0.29,0.31
1,1715180533891,-10.34,-8.91,11.82,1.18,-0.63,1.51
1,1715180533922,-7.31,-9.92,11.70,1.33,-1.77,0.83
1,1715180533954,-8.67,-10.62,13.20,2.05,-1.63,0.83
1,1715180533986,-10.53,-11.46,13.64,2.88,-1.39,1.44
1,1715180534018,-11.68,-12.01,12.85,3.43,-1.57,1.84
1,1715180534050,-14.72,-13.64,11.20,4.37,-2.35,1.89
1,1715180534082,-11.22,-13.41,7.34,4.37,-2.46,2.39
1,1715180534115,-9.54,-10.03,6.31,4.37,-1.63,2.95
1,1715180534147,-10.38,-11.26,6.66,4.37,-2.95,2.84
1,1715180534180,-3.53,-9.17,2.72,4.37,-2.41,2.35
1,1715180534213,-2.69,-4.06,1.47,4.37,-0.49,2.70
1,1715180534245,-8.48,-3.50,3.47,3.91,-2.31,2.35
1,1715180534277,0.83,-2.59,0.50,4.27,-2.44,1.92
1,1715180534309,2.59,2.37,-0.69,3.92,-0.02,1.99
1,1715180534341,-1.85,3.83,0.99,2.50,-0.38,1.43
1,1715180534373,3.22,4.08,0.65,1.89,-1.23,1.34
1,1715180534405,5.10,5.25,-0.12,1.75,-0.10,1.01
1,1715180534438,4.96,6.03,-0.77,1.13,0.51,0.38
1,1715180534470,4.08,6.52,-0.55,0.24,0.49,-0.23
1,1715180534502,4.57,5.84,-0.44,-0.45,0.50,-0.72
1,1715180534534,3.33,4.98,-0.16,-1.12,0.75,-1.22
1,1715180534567,1.71,3.47,1.60,-1.74,0.86,-1.69
1,1715180534599,1.98,2.16,2.52,-2.03,1.39,-2.12
1,1715180534631,-0.97,1.59,2.09,-2.49,1.71,-2.60
1,1715180534664,-2.32,0.00,1.63,-3.10,1.22,-2.87
1,1715180534695,-1.46,-2.04,2.10,-3.55,1.51,-3.06
1,1715180534728,-5.79,-4.04,4.42,-4.37,1.74,-3.40
1,1715180534760,-6.94,-6.58,6.15,-4.37,1.20,-3.52
1,1715180534793,-6.85,-8.87,6.82,-4.37,1.60,-3.52
1,1715180534824,-10.39,-11.63,8.11,-4.37,1.81,-3.53
1,1715180534856,-10.25,-14.52,9.09,-4.37,1.09,-3.32
1,1715180534889,-9.67,-14.38,10.01,-4.37,0.95,-2.47
1,1715180534920,-9.18,-14.15,11.05,-4.24,0.42,-2.21
1,1715180534953,-8.32,-14.76,9.82,-3.02,0.28,-2.02
1,1715180534985,-7.86,-12.65,10.30,-2.35,1.05,-1.54
1,1715180535017,-9.70,-11.73,10.41,-1.52,1.40,-0.82
1,1715180535050,-9.65,-11.19,9.25,-0.59,0.37,-0.25
1,1715180535082,-7.80,-9.86,7.50,0.03,0.13,-0.19
1,1715180535114,-7.55,-8.78,6.69,0.26,0.35,0.22
1,1715180535146,-7.10,-8.54,5.53,0.51,0.12,0.60
1,1715180535178,-6.38,-8.41,4.55,0.84,-0.20,0.70
1,1715180535211,-5.60,-8.22,4.26,0.93,-0.05,0.82
2,1715180538260,-6.55,-6.93,2.15,0.19,0.01,-0.02
2,1715180538292,-6.62,-6.89,2.18,0.19,0.00,-0.02
2,1715180538324,-6.59,-6.89,2.02,0.19,-0.00,-0.05
2,1715180538356,-6.66,-6.90,1.96,0.19,0.01,-0.03
2,1715180538388,-6.56,-6.96,2.14,0.20,0.01,-0.01
2,1715180538421,-6.75,-6.88,2.12,0.21,0.05,0.00
2,1715180538453,-6.90,-6.93,2.31,0.17,0.03,0.02
2,1715180538484,-6.90,-6.93,2.38,0.18,-0.00,0.03
2,1715180538517,-6.77,-6.82,2.35,0.22,0.01,0.04
2,1715180538549,-7.13,-6.81,2.29,0.24,0.09,0.09
2,1715180538581,-7.34,-6.92,2.24,0.18,0.07,0.14
2,1715180538613,-7.31,-6.91,2.37,0.20,0.06,0.20
2,1715180538645,-7.00,-6.80,2.31,0.24,0.10,0.27
2,1715180538677,-7.58,-6.48,2.44,0.16,-0.06,0.33
2,1715180538710,-7.28,-6.55,2.58,0.05,-0.74,0.25
2,1715180538742,-7.03,-6.17,3.98,-0.20,-0.71,0.10
2,1715180538773,-8.79,-7.10,6.08,-0.42,-0.53,0.19
2,1715180538805,-8.77,-7.34,6.88,-0.35,-0.53,0.30
2,1715180538838,-10.81,-8.03,7.10,0.08,-0.54,0.70
2,1715180538870,-10.78,-8.85,7.36,0.58,-0.83,1.24
2,1715180538902,-10.56,-8.68,6.52,1.44,-0.81,1.45
2,1715180538934,-13.36,-7.71,5.34,2.12,-1.17,1.85
2,1715180538966,-12.28,-7.95,5.61,2.38,-2.11,2.08
2,1715180538998,-10.56,-7.67,5.63,2.68,-2.23,1.90
2,1715180539030,-8.44,-7.43,4.58,3.49,-2.29,1.78
2,1715180539063,-11.75,-4.13,4.43,3.88,-1.89,2.26
2,1715180539095,-11.82,-6.53,5.11,3.74,-3.62,2.63
2,1715180539128,-5.13,-4.58,3.62,4.33,-3.80,1.63
2,1715180539159,-9.31,-0.94,4.72,4.09,-2.45,2.17
2,1715180539192,-6.66,-1.41,5.74,3.70,-2.49,2.23
2,1715180539224,-3.06,-1.58,3.11,4.19,-1.68,2.11
2,1715180539256,-5.15,3.54,5.05,3.00,-1.07,1.98
2,1715180539289,-0.77,-0.05,3.18,2.84,-1.74,1.49
2,1715180539321,-0.28,4.16,5.23,3.17,-0.56,2.12
2,1715180539353,0.17,6.28,2.37,1.79,-0.73,1.22
2,1715180539385,-0.26,5.51,4.45,1.45,-0.61,0.95
2,1715180539417,2.61,6.20,4.02,1.32,-0.64,0.85
2,1715180539449,2.55,6.98,2.20,0.85,0.16,0.07
2,1715180539481,1.64,7.07,2.53,0.53,0.45,-0.17
2,1715180539514,1.81,7.14,2.34,-0.10,0.37,-0.41
2,1715180539546,2.68,6.35,2.42,-0.44,0.47,-0.72
2,1715180539578,3.10,5.84,2.21,-0.68,1.01,-1.14
2,1715180539611,1.53,5.09,1.30,-1.11,1.42,-1.77
2,1715180539643,-0.60,4.24,2.32,-1.98,0.92,-2.21
2,1715180539675,-0.20,2.60,3.00,-2.57,1.03,-2.46
2,1715180539707,-1.06,0.41,1.55,-3.24,1.73,-3.15
2,1715180539739,-5.92,-1.23,4.60,-3.23,1.65,-3.22
2,1715180539771,-5.61,-2.10,5.50,-4.37,1.04,-3.13
2,1715180539803,-8.01,-4.86,4.79,-4.37,1.52,-3.65
2,1715180539835,-9.92,-8.77,6.44,-4.37,1.24,-3.92
2,1715180539868,-6.31,-10.61,6.84,-4.37,0.90,-3.00
2,1715180539899,-7.64,-12.25,5.82,-4.10,2.35,-2.88
2,1715180539931,-14.12,-12.30,7.95,-3.81,2.03,-2.64
2,1715180539964,-9.83,-13.11,7.56,-3.31,0.95,-2.36
2,1715180539996,-8.08,-12.71,6.73,-2.08,1.90,-1.80
2,1715180540028,-11.00,-10.27,3.89,-1.11,1.72,-0.68
2,1715180540060,-12.58,-10.32,6.84,-1.03,1.28,0.07
2,1715180540092,-9.69,-9.37,5.94,-0.44,0.95,-0.67
2,1715180540125,-10.83,-8.15,5.04,-0.07,0.60,-0.47
2,1715180540157,-9.89,-7.41,5.39,0.17,-0.17,-0.16
2,1715180540189,-8.17,-7.57,4.53,0.40,-0.40,0.08
2,1715180540221,-7.99,-7.26,3.70,0.51,-0.26,0.26
2,1715180540253,-7.76,-7.38,3.45,0.48,-0.41,0.45
2,1715180540285,-6.89,-7.61,2.98,0.69,-0.41,0.57
3,1715180543350,-7.58,-6.60,1.86,0.05,-0.07,0.07
3,1715180543382,-7.74,-6.83,2.19,0.10,-0.02,0.13
3,1715180543415,-7.62,-6.68,2.27,0.11,-0.15,0.15
3,1715180543447,-7.02,-6.46,2.24,0.11,-0.23,0.14
3,1715180543478,-6.69,-6.39,2.16,0.16,-0.20,0.18
3,1715180543511,-6.48,-6.51,1.97,0.18,-0.18,0.13
3,1715180543543,-6.34,-6.35,1.88,0.15,-0.16,0.02
3,1715180543575,-6.27,-6.05,1.83,0.22,0.02,-0.05
3,1715180543608,-6.80,-6.13,1.83,0.29,0.24,-0.03
3,1715180543640,-7.46,-6.34,1.86,0.30,0.29,-0.02
3,1715180543671,-7.79,-6.40,1.83,0.26,0.07,-0.05
3,1715180543704,-7.26,-6.22,1.50,0.27,-0.03,-0.06
3,1715180543735,-6.88,-5.89,1.28,0.24,0.13,0.02
3,1715180543768,-7.22,-5.94,1.68,0.16,0.25,0.04
3,1715180543800,-7.81,-6.51,3.88,0.18,0.25,-0.02
3,1715180543833,-9.53,-5.41,4.69,0.16,0.03,-0.03
3,1715180543866,-12.76,-5.52,7.91,-0.26,-1.17,0.16
3,1715180543897,-11.25,-8.66,11.52,0.52,-1.10,0.64
3,1715180543930,-15.26,-7.78,10.95,1.65,-0.90,1.19
3,1715180543962,-15.66,-8.96,10.29,2.26,-1.97,1.61
3,1715180543993,-14.90,-9.70,9.09,3.17,-2.00,2.10
3,1715180544026,-16.87,-8.77,6.76,3.87,-1.94,2.86
3,1715180544058,-15.63,-10.30,5.94,3.99,-3.80,3.37
3,1715180544091,-9.53,-8.77,4.24,4.37,-4.07,3.17
3,1715180544122,-10.66,-5.72,4.63,4.18,-2.33,3.20
3,1715180544155,-11.38,-7.04,3.07,3.85,-4.03,2.98
3,1715180544187,-4.12,-4.16,1.86,4.22,-3.54,2.59
3,1715180544219,-5.88,-3.18,3.46,3.64,-2.04,2.79
3,1715180544251,-3.51,-1.58,2.63,3.86,-2.85,2.41
3,1715180544283,-0.62,1.75,1.78,3.88,-1.31,2.50
3,1715180544315,1.05,2.49,1.07,2.82,-1.31,1.85
3,1715180544347,-1.59,3.68,2.88,2.16,-1.77,1.60
3,1715180544379,4.35,4.53,1.64,2.57,-1.07,1.52
3,1715180544411,1.01,7.09,3.32,2.11,-0.29,1.23
3,1715180544443,4.00,7.02,3.35,1.94,-1.24,1.29
3,1715180544475,7.22,7.37,0.06,2.11,-0.21,1.05
3,1715180544508,4.05,8.87,0.14,1.24,-0.07,0.34
3,1715180544540,5.90,7.81,-0.37,0.70,-0.38,0.10
3,1715180544573,6.90,7.32,-0.97,0.43,0.16,-0.16
3,1715180544605,6.38,6.67,-1.20,-0.27,0.37,-0.85
3,1715180544637,4.86,5.87,-0.32,-0.99,0.52,-1.51
3,1715180544669,4.35,4.34,-1.58,-1.31,1.01,-1.95
3,1715180544702,2.78,3.30,-0.92,-1.80,1.64,-2.50
3,1715180544733,0.47,1.87,1.13,-2.83,1.27,-3.12
3,1715180544765,-0.00,0.75,1.81,-2.98,1.82,-3.34
3,1715180544798,-1.74,-0.05,1.86,-3.81,2.30,-3.88
3,1715180544830,-5.03,-1.40,2.55,-4.37,1.66,-4.36
3,1715180544862,-6.00,-4.30,3.40,-4.37,2.06,-4.25
3,1715180544895,-5.56,-6.99,5.05,-4.37,3.17,-4.32
3,1715180544927,-10.05,-12.04,4.64,-4.37,4.30,-4.37
3,1715180544959,-14.76,-13.22,5.87,-4.37,1.52,-4.09
3,1715180544991,-8.66,-15.69,5.33,-3.96,1.79,-3.61
3,1715180545024,-13.95,-14.44,5.18,-3.61,3.14,-2.93
3,1715180545056,-16.00,-14.40,5.34,-3.15,2.72,-1.85
3,1715180545087,-14.38,-11.57,6.17,-2.34,2.23,-0.99
3,1715180545120,-12.87,-9.58,5.54,-1.29,1.88,-0.46
3,1715180545152,-13.64,-8.43,5.42,-0.55,1.13,-0.26
3,1715180545184,-11.75,-7.55,4.30,-0.08,0.52,-0.06
3,1715180545217,-11.94,-6.57,3.61,0.28,-0.17,0.12
3,1715180545249,-10.62,-6.14,2.81,0.24,-0.91,0.17
3,1715180545280,-6.98,-7.78,3.66,0.18,-0.92,0.31
3,1715180545313,-7.61,-6.55,3.21,0.75,-0.33,0.62
3,1715180545345,-6.76,-6.88,2.58,0.94,-0.40,0.79
3,1715180545377,-6.71,-6.59,1.97,0.93,-0.13,0.67
4,1715180548424,-7.58,-5.91,2.29,0.18,0.03,-0.01
4,1715180548456,-7.34,-5.87,2.20,0.20,0.05,-0.00
4,1715180548489,-7.06,-5.90,2.03,0.26,0.20,0.00
4,1715180548520,-7.15,-6.00,1.91,0.30,0.33,0.01
4,1715180548552,-7.29,-5.90,1.72,0.27,0.30,-0.02
4,1715180548584,-7.33,-5.95,1.65,0.19,0.19,-0.11
4,1715180548617,-7.32,-5.99,1.58,0.11,0.13,-0.17
4,1715180548649,-7.38,-6.07,1.59,0.04,0.04,-0.21
4,1715180548680,-7.21,-6.07,1.57,0.01,0.01,-0.25
4,1715180548713,-7.04,-6.22,1.46,0.02,0.12,-0.22
4,1715180548746,-7.05,-6.17,1.60,0.04,0.27,-0.20
4,1715180548777,-7.31,-6.33,1.82,0.04,0.28,-0.19
4,1715180548810,-7.32,-6.28,1.86,0.04,0.20,-0.23
4,1715180548841,-7.87,-5.91,2.48,-0.01,0.22,-0.25
4,1715180548873,-8.92,-5.62,3.78,-0.32,0.17,-0.21
4,1715180548906,-8.44,-6.79,6.03,-0.49,0.40,-0.27
4,1715180548938,-11.54,-6.44,6.50,-0.27,0.61,-0.08
4,1715180548970,-14.41,-6.35,7.47,-0.49,-0.49,0.20
4,1715180549002,-14.26,-9.34,7.52,-0.22,-1.26,0.62
4,1715180549035,-12.70,-10.01,6.18,0.81,-1.54,0.92
4,1715180549067,-14.80,-8.88,5.21,2.11,-1.97,1.36
4,1715180549099,-15.92,-10.00,6.30,2.32,-2.58,2.26
4,1715180549131,-14.24,-10.18,3.68,3.40,-2.65,2.42
4,1715180549163,-15.11,-9.02,3.60,3.55,-2.78,2.84
4,1715180549196,-14.15,-10.03,4.81,3.74,-3.06,2.93
4,1715180549227,-10.72,-9.17,0.45,4.37,-3.62,2.40
4,1715180549259,-10.82,-6.40,1.40,4.37,-4.05,1.90
4,1715180549292,-8.35,-5.49,1.87,4.37,-4.37,2.60
4,1715180549323,-3.91,-3.67,0.75,4.37,-3.41,2.13
4,1715180549356,-4.81,-2.13,1.90,4.37,-4.21,2.19
4,1715180549388,1.93,-0.53,-0.91,4.37,-2.76,1.64
4,1715180549420,2.59,4.09,0.24,3.90,-0.58,1.35
4,1715180549452,-4.23,3.96,3.24,2.80,-1.95,1.89
4,1715180549484,5.17,4.41,0.59,2.65,-1.63,0.44
4,1715180549516,3.64,9.39,0.82,2.02,-0.12,0.34
4,1715180549548,3.62,7.26,0.50,1.40,-0.34,0.58
4,1715180549580,4.18,8.88,0.24,0.94,-0.04,0.19
4,1715180549612,3.69,8.85,0.04,0.28,0.00,-0.10
4,1715180549645,3.33,8.54,-0.12,0.02,0.39,-0.21
4,1715180549677,3.78,8.24,0.09,-0.36,0.66,-0.48
4,1715180549709,3.14,7.07,1.25,-0.95,0.62,-0.92
4,1715180549741,2.45,5.15,0.88,-1.37,0.66,-1.47
4,1715180549774,2.57,3.85,1.18,-1.54,1.08,-1.80
4,1715180549805,1.68,3.06,0.15,-1.90,1.65,-2.29
4,1715180549838,-2.16,2.15,2.20,-2.62,1.77,-2.82
4,1715180549870,-2.78,0.31,3.36,-3.29,1.16,-3.09
4,1715180549901,-1.05,-1.31,2.36,-3.63,1.87,-3.27
4,1715180549934,-7.81,-3.63,5.37,-4.37,1.64,-3.75
4,1715180549966,-9.21,-5.48,7.54,-4.37,0.87,-3.87
4,1715180549999,-6.31,-7.23,4.99,-4.37,1.42,-3.85
4,1715180550030,-5.11,-9.37,5.37,-4.37,2.46,-3.83
4,1715180550062,-12.03,-10.69,6.42,-4.37,2.74,-3.25
4,1715180550095,-10.50,-14.03,3.90,-4.37,2.08,-3.15
4,1715180550127,-8.86,-16.66,3.85,-4.37,2.58,-3.01
4,1715180550159,-10.41,-15.95,4.41,-3.50,3.72,-2.35
4,1715180550191,-15.91,-14.35,4.49,-2.44,3.37,-1.19
4,1715180550223,-16.85,-11.24,6.36,-1.98,2.21,-0.37
4,1715180550256,-13.74,-9.66,4.76,-1.40,1.35,-0.24
4,1715180550288,-12.17,-8.69,5.64,-0.18,1.09,-0.25
4,1715180550320,-9.70,-9.83,6.33,1.92,1.91,0.13
4,1715180550353,-14.02,-4.47,2.72,1.49,1.08,1.49
4,1715180550385,-10.98,-5.16,2.06,0.90,-0.28,1.19
4,1715180550417,-9.46,-5.25,1.16,0.12,-1.43,0.37
4,1715180550449,-7.64,-5.85,0.69,-0.20,-1.54,0.13
5,1715180643220,-4.69,-3.58,7.87,-0.06,0.23,0.04
5,1715180643252,-4.37,-9.10,3.98,0.22,-0.32,-0.14
5,1715180643284,-4.29,-9.02,4.01,0.31,-0.11,-0.15
5,1715180643316,-4.93,-9.27,4.03,0.50,-0.01,-0.06
5,1715180643349,-4.58,-8.80,3.71,0.57,-0.01,0.04
5,1715180643381,-4.33,-8.71,3.57,0.48,0.10,0.10
5,1715180643413,-4.41,-8.50,3.68,0.53,0.12,0.13
5,1715180643445,-4.26,-7.37,3.40,0.57,0.05,0.17
5,1715180643478,-4.19,-7.28,3.11,0.39,0.04,0.24
5,1715180643510,-4.19,-7.72,3.17,0.16,-0.14,0.22
5,1715180643541,-4.07,-7.34,3.41,0.06,-0.46,0.15
5,1715180643573,-3.29,-7.74,3.39,-0.07,-0.37,0.10
5,1715180643606,-3.46,-8.94,3.66,-0.09,-0.09,0.04
5,1715180643637,-4.16,-8.79,3.92,-0.04,-0.16,-0.06
5,1715180643670,-3.96,-8.13,3.50,-0.03,-0.08,-0.06
5,1715180643702,-3.89,-7.96,3.61,-0.02,0.23,-0.00
5,1715180643734,-4.88,-8.11,4.93,-0.08,0.21,-0.02
5,1715180643766,-5.33,-7.85,5.85,-0.13,0.14,-0.01
5,1715180643799,-8.15,-8.66,9.49,-0.05,0.18,0.12
5,1715180643830,-7.21,-9.07,13.18,0.38,-0.85,0.50
5,1715180643863,-6.08,-10.12,14.75,1.13,-0.29,0.63
5,1715180643895,-8.42,-10.36,15.35,2.17,-0.18,0.97
5,1715180643928,-9.89,-11.09,15.59,2.72,-0.95,1.24
5,1715180643960,-8.16,-11.71,13.35,3.39,-0.96,1.30
5,1715180643992,-10.97,-11.99,13.35,3.86,-0.86,1.55
5,1715180644024,-10.83,-13.11,11.78,4.37,-1.76,1.76
5,1715180644056,-10.02,-12.72,10.13,4.37,-1.39,2.10
5,1715180644089,-11.65,-14.49,10.41,4.37,-1.75,2.30
5,1715180644121,-7.82,-13.65,5.84,4.37,-2.15,2.51
5,1715180644154,-6.67,-10.51,5.14,4.37,-1.23,2.72
5,1715180644187,-6.98,-10.06,3.39,4.37,-2.07,2.77
5,1715180644219,-2.45,-5.18,1.23,4.37,-1.88,2.60
5,1715180644251,-4.41,-4.41,3.67,4.37,-1.52,2.09
5,1715180644283,-0.71,-1.97,0.45,4.37,-1.53,2.33
5,1715180644315,1.48,2.17,-2.81,4.37,-0.31,2.49
5,1715180644347,0.22,4.64,-2.08,3.23,-0.49,2.00
5,1715180644379,2.57,4.84,-2.08,2.40,-0.93,1.59
5,1715180644412,4.91,6.10,-2.51,2.02,-0.37,1.40
5,1715180644444,4.56,6.97,-1.71,1.26,-0.06,1.04
5,1715180644476,4.99,7.43,-0.84,0.80,-0.34,0.59
5,1715180644508,5.90,8.16,-0.65,0.40,-0.05,0.18
5,1715180644541,5.58,8.64,-0.62,-0.13,0.40,-0.28
5,1715180644573,4.66,8.47,-0.62,-0.38,0.35,-0.48
5,1715180644605,4.30,8.03,-0.89,-0.78,0.40,-0.63
5,1715180644637,4.89,6.94,-1.15,-1.38,0.59,-0.95
5,1715180644669,4.11,5.96,-0.81,-1.89,0.76,-1.34
5,1715180644701,2.53,4.97,-0.86,-2.37,1.09,-1.73
5,1715180644734,0.76,2.85,-0.70,-2.98,1.03,-1.96
5,1715180644766,-0.33,0.34,-0.27,-3.61,1.05,-2.26
5,1715180644798,-1.12,-2.21,0.85,-4.37,0.94,-2.69
5,1715180644830,-3.27,-3.51,1.89,-4.37,1.53,-3.07
5,1715180644862,-4.71,-6.39,2.74,-4.37,1.16,-3.11
5,1715180644895,-2.87,-11.49,4.58,-4.37,0.95,-3.39
5,1715180644927,-3.03,-14.88,6.69,-4.37,1.46,-3.43
5,1715180644958,-4.69,-16.17,5.65,-4.37,3.16,-3.52
5,1715180644991,-8.06,-19.61,10.49,-4.37,1.61,-3.67
5,1715180645023,-7.20,-19.61,10.96,-4.37,0.72,-4.05
5,1715180645055,-6.15,-19.61,8.68,-3.68,3.05,-2.79
5,1715180645087,-15.40,-16.08,10.50,-3.69,2.92,-2.44
5,1715180645119,-12.42,-15.52,11.42,-2.71,0.43,-0.98
5,1715180645152,-7.51,-13.65,9.22,-1.51,0.73,0.01
5,1715180645184,-7.16,-11.77,7.92,-0.84,1.70,0.32
5,1715180645216,-6.71,-10.92,7.82,-0.55,1.60,0.78
5,1715180645248,-6.43,-10.00,6.91,-0.16,1.33,0.85
6,1715180648291,-5.94,-7.75,0.80,0.20,0.03,-0.01
6,1715180648323,-5.91,-7.83,0.75,0.21,0.04,-0.00
6,1715180648355,-5.92,-7.80,0.77,0.19,0.01,-0.00
6,1715180648387,-5.80,-7.72,0.87,0.18,-0.03,0.00
6,1715180648419,-5.59,-7.77,0.73,0.17,-0.05,-0.00
6,1715180648451,-5.46,-7.81,0.97,0.14,-0.06,-0.03
6,1715180648483,-5.59,-7.75,0.94,0.10,-0.08,-0.06
6,1715180648515,-5.84,-7.81,1.38,0.02,-0.20,-0.09
6,1715180648548,-6.00,-8.14,1.84,-0.01,-0.40,-0.12
6,1715180648580,-5.53,-8.14,2.77,0.06,-0.38,-0.14
6,1715180648612,-5.41,-7.93,2.98,0.14,-0.04,-0.16
6,1715180648644,-8.03,-7.95,4.54,-0.08,-0.35,-0.17
6,1715180648677,-7.78,-8.44,6.20,-0.38,-0.97,-0.42
6,1715180648709,-9.05,-9.74,7.15,-0.17,-0.61,-0.32
6,1715180648741,-12.97,-11.21,8.03,0.19,-0.38,0.56
6,1715180648773,-13.76,-11.94,7.66,0.79,-1.17,1.41
6,1715180648805,-14.46,-13.26,7.20,1.75,-2.10,1.71
6,1715180648837,-12.03,-14.49,6.05,2.76,-2.10,1.82
6,1715180648870,-14.92,-13.47,4.97,3.69,-1.88,2.24
6,1715180648901,-17.72,-15.75,5.24,3.87,-2.47,3.10
6,1715180648934,-17.31,-16.37,3.04,4.37,-3.88,2.95
6,1715180648966,-12.12,-16.68,2.98,4.37,-4.37,2.62
6,1715180648999,-11.43,-15.19,2.68,4.37,-3.57,3.33
6,1715180649031,-11.24,-14.12,1.21,4.37,-4.11,3.80
6,1715180649064,-1.99,-9.65,-2.43,4.37,-3.91,3.17
6,1715180649096,-2.44,-5.87,-1.27,4.37,-2.60,3.47
6,1715180649128,-1.18,-4.18,-1.77,4.37,-2.83,3.16
6,1715180649160,3.98,-0.05,-4.09,4.37,-1.94,2.87
6,1715180649192,3.26,1.97,-4.62,3.85,-0.75,1.94
6,1715180649225,5.38,4.28,-4.78,2.99,-0.59,1.48
6,1715180649256,6.45,6.41,-6.04,1.73,-0.01,0.98
6,1715180649289,8.66,5.95,-6.54,0.62,0.42,0.28
6,1715180649321,7.71,6.75,-5.20,-0.61,0.96,-0.78
6,1715180649352,6.09,6.41,-3.26,-1.94,0.98,-1.53
6,1715180649385,5.26,4.35,-1.58,-2.87,1.09,-2.21
6,1715180649417,4.16,2.89,-0.22,-2.75,1.56,-2.53
6,1715180649449,1.52,2.17,0.16,-3.13,2.70,-2.85
6,1715180649481,-0.75,0.00,0.69,-4.31,2.43,-3.50
6,1715180649514,-7.01,-3.27,4.55,-4.13,2.51,-3.67
6,1715180649546,-5.72,-3.50,5.27,-4.37,2.40,-3.79
6,1715180649578,-8.98,-6.75,6.90,-4.37,2.63,-3.71
6,1715180649610,-10.60,-10.41,6.94,-4.37,2.02,-4.37
6,1715180649642,-9.41,-10.01,3.70,-4.37,1.28,-3.62
6,1715180649675,-6.62,-9.96,2.89,-4.37,1.78,-2.53
6,1715180649707,-6.69,-13.08,4.06,-4.20,1.92,-2.30
6,1715180649739,-5.88,-15.38,4.04,-3.59,2.28,-2.55
6,1715180649771,-8.49,-16.25,3.25,-3.13,2.87,-3.08
6,1715180649803,-10.52,-17.01,5.37,-3.01,2.58,-2.96
6,1715180649835,-11.34,-14.85,3.39,-2.18,3.03,-2.19
6,1715180649867,-14.09,-13.03,3.86,-1.56,2.84,-0.91
6,1715180649900,-13.69,-11.16,3.14,-1.06,2.43,0.39
6,1715180649931,-12.78,-9.73,2.46,-0.34,1.57,1.18
6,1715180649964,-10.28,-9.68,4.01,-0.17,0.58,1.10
6,1715180649995,-6.87,-9.43,2.92,0.75,1.37,0.56
6,1715180650027,-7.09,-8.16,3.29,1.65,2.55,0.80
6,1715180650060,-10.25,-6.18,2.09,1.46,1.97,1.33
6,1715180650092,-9.05,-5.87,1.66,1.09,0.47,0.83
6,1715180650124,-8.56,-5.66,0.19,0.48,-0.09,0.22
6,1715180650157,-9.73,-6.32,-0.28,-0.07,-1.19,0.31
6,1715180650189,-7.41,-7.30,-0.11,-0.07,-1.53,0.32
6,1715180650221,-6.85,-7.43,-0.27,0.16,-1.30,0.43
6,1715180650253,-6.26,-7.09,-0.45,0.41,-0.71,0.53
6,1715180650285,-7.02,-6.63,-0.59,0.41,-0.33,0.77
6,1715180650317,-8.38,-6.20,-0.46,0.08,-1.38,0.76
7,1715180653364,-6.58,-7.05,0.00,0.18,0.04,-0.07
7,1715180653396,-6.64,-6.97,0.06,0.15,0.01,-0.08
7,1715180653427,-6.61,-6.96,0.14,0.15,-0.00,-0.07
7,1715180653460,-6.75,-6.96,0.06,0.15,-0.03,-0.05
7,1715180653492,-6.76,-7.03,0.14,0.13,-0.07,-0.04
7,1715180653524,-6.66,-6.98,0.25,0.09,-0.04,-0.03
7,1715180653556,-7.06,-6.86,0.70,0.02,-0.05,-0.01
7,1715180653588,-7.18,-7.07,1.50,-0.02,-0.16,-0.03
7,1715180653620,-7.52,-6.88,2.08,0.04,-0.26,-0.03
7,1715180653653,-8.45,-6.99,3.26,-0.13,-0.32,-0.07
7,1715180653685,-8.75,-7.58,4.58,-0.24,-0.38,-0.15
7,1715180653717,-10.86,-8.01,5.14,-0.18,-0.43,-0.15
7,1715180653749,-13.01,-8.49,7.41,0.30,-1.32,0.29
7,1715180653782,-11.30,-10.49,6.87,1.09,-1.75,0.57
7,1715180653815,-13.31,-10.10,6.20,2.06,-1.16,0.87
7,1715180653846,-14.52,-10.21,5.87,2.18,-1.87,1.52
7,1715180653879,-14.48,-11.41,5.19,2.57,-2.06,1.82
7,1715180653912,-16.53,-11.43,4.91,3.17,-2.57,2.32
7,1715180653944,-15.79,-12.60,4.50,3.65,-3.28,2.66
7,1715180653975,-14.67,-12.47,3.02,4.34,-3.72,2.76
7,1715180654007,-13.46,-11.89,3.40,4.37,-4.37,2.89
7,1715180654040,-11.55,-11.19,2.43,4.37,-4.37,2.83
7,1715180654072,-8.19,-8.10,2.36,4.37,-4.37,2.91
7,1715180654104,-8.49,-9.68,5.57,4.37,-4.37,3.21
7,1715180654136,-3.47,-6.76,0.95,4.37,-3.42,3.49
7,1715180654167,-3.51,-0.33,0.45,4.37,-1.45,3.04
7,1715180654200,-3.06,-1.98,1.40,4.37,-2.82,2.84
7,1715180654232,3.09,1.54,-2.22,4.37,-1.26,2.77
7,1715180654264,1.79,3.04,-2.14,3.31,-1.23,2.36
7,1715180654297,6.90,3.79,-2.71,2.62,-1.23,1.94
7,1715180654328,8.06,5.32,-3.32,1.87,-0.52,1.39
7,1715180654361,7.95,5.34,-2.50,1.14,-0.39,0.78
7,1715180654393,9.47,6.24,-2.09,0.65,-0.23,0.32
7,1715180654425,8.66,6.67,-2.68,0.14,0.25,-0.25
7,1715180654457,7.51,7.15,-1.48,-0.37,0.25,-0.63
7,1715180654489,6.78,7.00,-0.77,-0.68,0.52,-0.95
7,1715180654521,5.41,7.05,-0.07,-1.17,0.67,-1.27
7,1715180654553,4.76,5.92,1.11,-1.39,0.65,-1.46
7,1715180654585,4.40,5.49,1.35,-1.49,1.00,-1.67
7,1715180654618,2.05,5.60,1.42,-2.07,1.13,-2.08
7,1715180654650,1.59,4.16,2.70,-2.07,1.19,-1.98
7,1715180654682,1.61,4.05,2.41,-2.27,1.60,-2.10
7,1715180654715,-1.03,3.33,3.61,-3.57,1.39,-2.77
7,1715180654746,-4.52,0.82,7.30,-3.58,1.07,-2.87
7,1715180654778,-2.19,0.83,5.54,-2.93,1.82,-2.20
7,1715180654811,-3.46,1.06,5.35,-3.56,2.55,-2.51
7,1715180654843,-8.09,-1.24,7.06,-4.37,3.25,-3.18
7,1715180654875,-9.00,-3.87,8.41,-4.09,1.65,-3.31
7,1715180654907,-6.06,-3.64,8.29,-4.03,1.83,-2.27
7,1715180654939,-6.82,-5.21,8.31,-3.85,3.51,-1.96
7,1715180654971,-11.11,-7.97,8.09,-3.00,1.80,-2.63
7,1715180655003,-8.41,-5.65,6.45,-2.59,0.56,-2.36
7,1715180655035,-5.22,-7.48,6.57,-2.85,2.08,-1.75
7,1715180655068,-10.60,-9.39,6.46,-2.65,1.98,-1.97
7,1715180655100,-10.47,-9.25,6.74,-2.44,0.70,-1.96
7,1715180655133,-6.51,-10.19,7.47,-2.43,1.37,-1.61
7,1715180655166,-9.53,-11.24,6.49,-1.56,1.76,-1.54
7,1715180655198,-10.66,-9.08,6.20,-1.24,1.18,-0.73
7,1715180655229,-7.78,-9.95,6.96,-1.24,0.81,-0.93
7,1715180655262,-8.47,-9.42,6.68,-0.75,1.02,-0.57
7,1715180655294,-8.89,-8.92,5.90,-0.32,0.96,-0.35
7,1715180655326,-10.56,-8.14,4.94,-0.29,-0.10,-0.14
7,1715180655358,-6.11,-9.47,5.24,-0.14,-0.46,0.03
7,1715180655391,-6.42,-8.23,4.22,0.46,0.24,0.21
8,1715180658446,-6.43,-7.34,1.96,0.13,-0.20,-0.07
8,1715180658478,-5.63,-7.30,1.83,0.07,-0.07,-0.05
8,1715180658510,-5.72,-7.38,2.47,0.02,0.29,0.03
8,1715180658543,-6.22,-7.66,3.29,-0.09,0.16,-0.02
8,1715180658575,-6.38,-7.72,3.49,-0.08,-0.05,-0.12
8,1715180658607,-6.81,-7.52,3.89,-0.15,-0.31,-0.19
8,1715180658640,-7.07,-7.99,5.19,-0.45,-0.65,-0.32
8,1715180658672,-7.04,-8.98,6.39,-0.50,-0.53,-0.44
8,1715180658705,-8.57,-8.94,7.27,-0.36,-0.20,-0.19
8,1715180658736,-10.16,-10.66,8.52,-0.26,-0.49,0.22
8,1715180658769,-10.43,-11.90,8.24,0.36,-0.67,0.57
8,1715180658801,-11.99,-12.15,8.04,1.21,-1.03,0.74
8,1715180658833,-12.38,-13.17,7.48,2.08,-1.66,0.88
8,1715180658865,-13.54,-13.16,5.69,3.15,-2.11,1.17
8,1715180658897,-13.55,-13.87,5.48,3.61,-1.96,2.04
8,1715180658929,-13.82,-13.32,3.69,4.30,-1.98,2.37
8,1715180658961,-16.06,-12.56,2.40,4.37,-3.55,2.53
8,1715180658993,-11.25,-13.34,2.10,4.37,-4.18,2.42
8,1715180659026,-10.89,-12.22,1.74,4.37,-4.04,2.00
8,1715180659057,-7.81,-9.54,0.83,4.37,-4.17,2.47
8,1715180659089,-6.98,-7.10,1.90,4.37,-4.37,2.74
8,1715180659121,-2.13,-6.68,0.66,4.37,-4.37,2.19
8,1715180659153,-2.91,-3.07,2.40,4.37,-2.54,2.47
8,1715180659186,-1.43,-1.05,1.20,4.37,-2.70,2.93
8,1715180659218,3.20,1.19,-1.36,4.37,-1.17,2.30
8,1715180659250,1.45,2.40,-0.23,4.13,-1.54,1.88
8,1715180659283,5.79,4.79,-1.67,3.59,-0.85,1.54
8,1715180659315,5.15,5.52,-2.03,2.50,-0.64,1.36
8,1715180659347,6.30,5.63,-2.01,1.78,-0.55,0.87
8,1715180659380,7.82,7.28,-1.66,1.21,-0.11,0.69
8,1715180659412,7.66,7.39,-1.23,0.49,-0.11,0.41
8,1715180659444,7.88,7.38,0.21,0.32,0.09,0.15
8,1715180659476,6.81,8.03,0.80,0.10,0.15,-0.05
8,1715180659507,6.57,8.27,1.07,-0.28,0.02,-0.36
8,1715180659540,5.92,7.88,2.09,-0.23,0.12,-0.61
8,1715180659572,5.17,8.60,2.14,-0.17,0.15,-0.70
8,1715180659604,5.17,8.54,1.37,-0.28,0.21,-0.65
8,1715180659636,4.74,8.16,1.18,-0.48,0.19,-0.80
8,1715180659668,4.56,7.74,0.56,-0.65,0.35,-0.89
8,1715180659700,4.58,7.22,0.67,-0.92,0.43,-1.02
8,1715180659732,3.91,6.82,1.37,-1.19,0.60,-1.24
8,1715180659764,3.29,6.38,1.01,-1.50,0.85,-1.43
8,1715180659797,2.59,5.36,1.41,-1.78,1.06,-1.55
8,1715180659829,1.87,4.84,1.86,-2.17,1.12,-1.76
8,1715180659862,-0.19,3.67,1.70,-2.75,1.26,-2.06
8,1715180659893,-0.49,2.09,2.81,-3.00,1.35,-2.01
8,1715180659925,-1.32,1.77,3.38,-3.55,1.28,-2.25
8,1715180659957,-3.10,-0.01,2.78,-4.37,1.44,-2.74
8,1715180659990,-3.56,-2.57,4.59,-4.37,1.36,-2.87
8,1715180660021,-4.07,-5.00,4.75,-4.37,1.77,-2.67
8,1715180660054,-5.31,-7.10,5.81,-4.37,2.33,-2.79
8,1715180660086,-7.12,-10.39,6.70,-4.37,2.03,-2.90
8,1715180660119,-7.52,-11.98,9.11,-4.37,1.98,-2.82
8,1715180660151,-10.13,-12.79,9.58,-4.37,1.69,-2.60
8,1715180660183,-9.89,-13.50,9.62,-4.26,1.77,-2.11
8,1715180660216,-8.91,-12.89,10.27,-3.85,1.90,-1.52
8,1715180660248,-9.57,-13.28,8.84,-2.70,1.41,-0.92
8,1715180660281,-8.51,-11.63,9.21,-2.18,1.13,-0.42
8,1715180660313,-7.50,-10.71,8.48,-1.83,1.09,-0.28
8,1715180660345,-8.54,-10.88,7.40,-1.41,0.35,-0.14
8,1715180660377,-5.86,-11.06,7.95,-1.19,-0.03,0.14
8,1715180660410,-5.26,-10.58,6.82,-0.58,0.86,0.18
8,1715180660442,-7.35,-9.76,5.75,-0.15,0.61,0.31
8,1715180660474,-7.46,-8.51,4.72,-0.06,-0.15,0.29
9,1715180663535,-2.80,-8.93,2.82,0.16,-0.06,-0.06
9,1715180663567,-2.98,-8.98,2.90,0.10,0.15,-0.02
9,1715180663600,-3.51,-9.12,2.96,0.12,0.02,0.01
9,1715180663632,-3.55,-9.05,2.95,0.20,-0.34,-0.01
9,1715180663666,-2.67,-8.82,2.79,0.16,-0.24,0.01
9,1715180663698,-2.56,-8.87,2.71,0.11,0.22,0.01
9,1715180663730,-3.67,-9.15,3.01,0.13,0.09,0.01
9,1715180663762,-3.29,-9.07,2.85,0.19,-0.31,-0.04
9,1715180663794,-2.48,-8.85,2.66,0.14,-0.01,-0.01
9,1715180663827,-2.94,-8.97,2.84,0.10,0.40,0.05
9,1715180663859,-3.63,-9.31,2.82,0.17,-0.09,0.01
9,1715180663891,-2.86,-8.96,2.68,0.15,-0.16,-0.03
9,1715180663923,-2.68,-9.05,2.69,0.11,0.20,0.01
9,1715180663955,-3.36,-9.15,2.83,0.11,0.14,0.02
9,1715180663987,-3.20,-9.01,2.84,0.16,-0.21,-0.02
9,1715180664019,-2.75,-8.89,3.08,0.03,-0.10,-0.01
9,1715180664053,-2.62,-9.54,4.67,-0.04,0.09,-0.00
9,1715180664084,-2.85,-9.24,5.73,-0.06,-0.02,-0.07
9,1715180664117,-2.83,-9.40,7.05,-0.13,-0.36,-0.21
9,1715180664149,-2.53,-10.37,8.36,-0.16,-0.42,-0.33
9,1715180664181,-3.07,-11.29,9.69,0.16,-0.41,-0.33
9,1715180664213,-3.48,-12.29,10.57,0.69,-0.73,-0.25
9,1715180664247,-3.17,-13.39,11.19,1.32,-0.36,-0.17
9,1715180664279,-5.18,-14.47,10.67,2.18,-0.35,0.02
9,1715180664312,-4.86,-14.93,9.69,2.89,-0.59,0.17
9,1715180664343,-5.82,-15.10,8.94,3.68,-0.43,0.27
9,1715180664376,-6.44,-14.75,7.32,4.14,-0.22,1.02
9,1715180664407,-6.62,-13.93,7.90,4.35,-0.79,1.11
9,1715180664439,-5.10,-14.15,7.18,4.37,-0.80,1.14
9,1715180664472,-6.74,-12.59,5.12,4.37,-1.07,1.26
9,1715180664504,-2.69,-10.24,5.60,4.37,-0.65,1.42
9,1715180664536,-6.99,-9.70,4.80,4.37,-0.93,1.21
9,1715180664568,-3.73,-6.98,4.60,4.37,-1.33,1.47
9,1715180664600,-3.94,-5.89,5.41,4.37,-1.07,1.33
9,1715180664632,-3.70,-4.63,5.65,4.37,-1.28,1.53
9,1715180664665,-3.20,-1.93,5.22,4.37,-1.31,1.75
9,1715180664697,-1.06,-0.15,5.95,3.90,-0.94,1.61
9,1715180664730,-1.18,0.87,5.34,3.89,-1.04,1.55
9,1715180664762,1.05,3.24,4.06,3.60,-0.98,1.61
9,1715180664794,0.73,3.86,3.87,3.36,-0.89,1.54
9,1715180664827,2.60,5.58,2.29,3.02,-0.76,1.54
9,1715180664859,2.61,5.71,2.49,2.49,-0.65,1.30
9,1715180664890,4.32,6.17,2.19,2.28,-0.62,1.17
9,1715180664922,4.67,7.25,0.89,1.92,-0.08,1.00
9,1715180664955,4.10,7.47,0.88,1.28,-0.22,0.66
9,1715180664987,4.93,7.68,0.61,0.89,-0.06,0.44
9,1715180665019,4.68,7.41,0.56,0.41,0.17,0.20
9,1715180665051,4.71,7.40,0.96,0.09,0.24,-0.03
9,1715180665083,4.20,6.94,0.78,-0.33,0.42,-0.29
9,1715180665116,4.24,6.34,0.87,-0.60,0.65,-0.51
9,1715180665148,3.15,5.13,0.08,-0.90,0.98,-0.84
9,1715180665180,1.88,4.64,-0.55,-1.48,1.22,-1.18
9,1715180665212,1.41,4.21,0.02,-2.10,1.30,-1.40
9,1715180665244,1.24,2.61,1.18,-2.53,1.48,-1.67
9,1715180665277,-0.15,2.10,2.77,-2.96,1.71,-1.94
9,1715180665309,-1.13,2.14,3.90,-3.42,1.82,-2.10
9,1715180665341,-2.10,-0.21,6.04,-3.53,1.77,-2.18
9,1715180665373,-2.98,-0.85,8.13,-3.61,1.93,-2.31
9,1715180665405,-5.64,-1.80,7.65,-3.95,1.92,-2.54
9,1715180665437,-4.31,-4.19,8.91,-4.08,1.35,-2.29
9,1715180665470,-6.25,-5.88,11.31,-3.84,1.62,-2.48
9,1715180665501,-9.09,-7.22,10.59,-4.02,1.99,-2.51
9,1715180665534,-7.56,-8.19,11.95,-3.87,1.64,-2.14
9,1715180665566,-8.09,-9.30,11.94,-3.16,0.86,-1.96
10,1715180668616,-5.07,-8.31,1.91,0.21,0.09,-0.00
10,1715180668648,-5.03,-8.31,1.82,0.22,0.07,-0.00
10,1715180668680,-5.04,-8.31,1.81,0.22,0.07,0.01
10,1715180668713,-5.01,-8.27,1.73,0.22,0.07,-0.00
10,1715180668745,-5.00,-8.22,1.64,0.22,0.05,-0.01
10,1715180668777,-4.95,-8.26,1.58,0.23,0.07,0.00
10,1715180668809,-5.09,-8.26,1.55,0.21,0.08,0.02
10,1715180668841,-4.96,-8.26,1.57,0.18,0.04,-0.00
10,1715180668874,-4.97,-8.21,1.72,0.17,0.03,-0.01
10,1715180668906,-4.96,-8.30,1.74,0.19,0.06,0.00
10,1715180668938,-4.95,-8.26,1.70,0.19,0.10,0.01
10,1715180668970,-5.06,-8.15,1.84,0.15,0.07,0.00
10,1715180669002,-5.09,-8.27,1.98,0.08,-0.01,-0.03
10,1715180669034,-5.18,-8.16,2.09,0.03,-0.10,-0.04
10,1715180669066,-5.49,-8.04,2.39,-0.10,-0.27,-0.06
10,1715180669099,-5.80,-8.16,2.71,-0.26,-0.41,-0.08
10,1715180669132,-5.94,-8.25,3.21,-0.51,-0.61,-0.06
10,1715180669164,-6.33,-8.42,4.62,-0.97,-0.96,-0.09
10,1715180669196,-6.84,-9.38,6.49,-1.52,-1.19,-0.14
10,1715180669228,-7.17,-10.81,7.68,-1.76,-0.86,0.21
10,1715180669260,-9.86,-12.64,9.05,-1.62,-0.84,0.72
10,1715180669292,-11.51,-15.85,10.07,-1.19,-0.88,1.00
10,1715180669325,-10.13,-17.26,7.54,-0.31,-1.13,0.66
10,1715180669358,-16.35,-18.75,10.03,2.44,-2.14,0.52
10,1715180669389,-19.61,-19.61,7.01,4.37,-4.37,1.04
10,1715180669421,-13.86,-19.61,1.92,4.37,-4.37,0.26
10,1715180669453,-17.41,-19.61,3.64,4.37,-4.37,-0.34
10,1715180669486,-17.03,-19.61,-3.90,4.37,-4.30,0.66
10,1715180669518,-9.79,-18.93,-3.75,4.37,-3.93,2.73
10,1715180669550,-0.57,-12.59,-5.90,4.37,-1.48,3.17
10,1715180669582,-7.57,-9.35,-6.36,4.37,-1.03,3.71
10,1715180669614,4.59,-3.59,-6.79,4.37,-2.96,3.01
10,1715180669646,3.75,-1.95,-8.39,4.26,-0.46,2.13
10,1715180669678,4.80,0.10,-7.83,2.83,-0.06,1.45
10,1715180669711,7.03,1.98,-8.65,1.60,0.18,0.79
10,1715180669743,8.50,2.53,-10.59,0.25,0.63,-0.01
10,1715180669775,8.58,1.53,-9.41,-1.62,1.34,-1.22
10,1715180669808,6.75,-0.28,-6.58,-2.96,2.05,-2.43
10,1715180669839,3.46,-1.22,-4.14,-4.28,2.05,-3.31
10,1715180669871,0.64,-4.17,-1.26,-4.37,2.13,-4.19
10,1715180669904,-3.54,-6.59,2.20,-4.37,3.03,-4.37
10,1715180669935,-10.02,-6.04,5.44,-4.37,3.48,-4.23
10,1715180669969,-13.18,-10.96,7.10,-4.37,2.11,-3.46
10,1715180670000,-9.96,-10.69,7.81,-4.37,3.15,-3.62
10,1715180670033,-14.72,-13.14,11.79,-4.37,2.33,-4.37
10,1715180670065,-14.04,-13.85,11.19,-4.37,-0.02,-3.97
10,1715180670097,-6.48,-13.31,7.01,-3.43,1.46,-2.67
10,1715180670129,-7.43,-13.20,8.18,-3.94,2.84,-2.16
10,1715180670161,-9.90,-13.69,7.13,-3.58,3.07,-1.55
10,1715180670194,-10.67,-15.85,6.22,-2.20,2.04,-0.98
10,1715180670225,-9.77,-12.45,6.05,-1.50,1.02,-1.72
10,1715180670258,-7.51,-12.91,5.71,-1.17,1.79,-1.35
10,1715180670291,-9.55,-11.04,4.89,0.01,2.51,-0.27
10,1715180670322,-10.62,-9.52,4.13,0.44,1.96,0.45
10,1715180670355,-8.97,-8.68,3.19,0.41,1.44,1.12
10,1715180670387,-9.08,-8.28,2.47,0.28,0.74,1.43
10,1715180670419,-7.69,-8.14,2.38,0.28,-0.31,0.95
10,1715180670451,-5.50,-8.38,2.04,0.43,-0.41,0.12
10,1715180670483,-5.49,-7.33,1.69,0.51,0.03,0.07
10,1715180670516,-7.21,-6.57,1.22,0.57,-0.27,0.47
10,1715180670548,-5.28,-6.89,0.98,0.48,-0.44,-0.13
10,1715180670580,-4.74,-7.73,0.66,0.32,0.14,0.30
10,1715180670612,-6.18,-7.83,1.05,0.26,0.19,0.35
10,1715180670644,-5.72,-8.26,0.75,0.34,-0.22,0.36
11,1715180673681,-6.13,-7.55,0.70,0.19,0.09,-0.10
11,1715180673713,-6.35,-7.47,0.74,0.19,0.07,-0.10
11,1715180673745,-6.44,-7.44,0.73,0.18,0.04,-0.09
11,1715180673777,-6.28,-7.44,0.91,0.17,0.02,-0.07
11,1715180673810,-6.26,-7.46,0.85,0.18,0.03,-0.05
11,1715180673841,-6.17,-7.53,0.84,0.20,0.03,-0.02
11,1715180673873,-6.28,-7.57,0.74,0.22,0.05,-0.01
11,1715180673906,-6.30,-7.57,0.76,0.22,0.05,0.01
11,1715180673938,-6.19,-7.47,0.69,0.21,0.04,0.03
11,1715180673970,-6.18,-7.43,0.68,0.21,0.03,0.05
11,1715180674002,-6.07,-7.63,0.63,0.21,0.03,0.06
11,1715180674034,-5.89,-7.66,0.57,0.24,0.06,0.06
11,1715180674066,-5.71,-7.48,0.50,0.22,0.08,0.03
11,1715180674099,-5.93,-7.43,0.46,0.18,0.06,-0.01
11,1715180674131,-5.99,-7.46,0.52,0.15,0.01,-0.04
11,1715180674163,-6.00,-7.54,0.64,0.12,0.00,-0.05
11,1715180674195,-5.99,-7.45,0.74,0.07,0.03,-0.07
11,1715180674227,-6.34,-7.35,1.43,-0.05,-0.01,-0.10
11,1715180674259,-6.84,-7.41,2.33,-0.16,-0.03,-0.14
11,1715180674292,-7.61,-7.38,3.66,-0.34,-0.00,-0.16
11,1715180674324,-8.00,-8.02,5.18,-0.51,-0.02,-0.23
11,1715180674356,-9.84,-7.79,6.08,-0.36,-0.24,-0.22
11,1715180674388,-11.66,-7.97,6.93,-0.51,-0.18,0.18
11,1715180674420,-13.31,-9.37,8.13,-1.25,-0.16,0.59
11,1715180674452,-15.28,-12.87,8.78,-0.52,-0.73,0.64
11,1715180674484,-19.61,-13.81,8.69,1.34,-2.04,1.26
11,1715180674516,-19.51,-16.74,5.66,2.58,-3.71,1.98
11,1715180674548,-18.65,-17.93,3.87,4.37,-4.12,1.73
11,1715180674581,-19.61,-18.40,-0.41,4.37,-3.84,3.08
11,1715180674613,-16.64,-19.61,-0.40,4.37,-3.52,4.19
11,1715180674645,-19.61,-19.45,-0.14,4.37,-4.37,4.37
11,1715180674678,-13.20,-18.48,-2.92,4.37,-4.37,4.37
11,1715180674710,-9.31,-14.43,-2.23,4.37,-4.37,4.37
11,1715180674742,-7.46,-13.80,-2.14,4.37,-4.37,4.23
11,1715180674774,1.82,-7.89,-5.26,4.37,-3.73,4.37
11,1715180674807,-2.06,-4.68,-4.84,4.37,-2.73,4.10
11,1715180674839,5.13,-3.00,-6.61,4.37,-3.17,3.08
11,1715180674871,8.23,-1.11,-10.36,3.43,-1.63,2.19
11,1715180674903,8.38,0.48,-10.94,1.84,-2.08,1.10
11,1715180674936,11.31,0.86,-11.29,0.36,0.18,0.03
11,1715180674968,10.81,0.97,-10.58,-1.24,0.96,-1.07
11,1715180674999,8.15,0.71,-7.09,-2.33,1.58,-2.06
11,1715180675031,5.60,0.58,-4.45,-3.33,1.84,-2.76
11,1715180675064,3.32,-0.61,-3.69,-4.37,2.17,-3.59
11,1715180675096,0.09,-3.89,-2.20,-4.37,2.81,-4.23
11,1715180675129,-4.63,-5.83,2.31,-4.37,3.46,-4.01
11,1715180675161,-8.91,-6.33,3.88,-4.37,4.37,-4.33
11,1715180675193,-12.33,-13.93,2.38,-4.37,4.11,-4.37
11,1715180675225,-9.95,-17.81,8.01,-4.37,3.14,-3.75
11,1715180675258,-11.70,-15.97,8.84,-4.37,4.03,-4.34
11,1715180675290,-16.02,-14.80,6.50,-4.37,1.68,-3.94
11,1715180675322,-11.27,-13.59,10.05,-4.37,1.48,-2.32
11,1715180675354,-10.12,-15.72,6.11,-4.37,2.19,-0.36
11,1715180675386,-12.28,-13.23,5.34,-3.33,2.71,-0.51
11,1715180675418,-7.00,-16.59,10.51,-2.96,2.28,-1.76
11,1715180675451,-12.27,-12.26,5.66,-0.78,2.74,-1.66
11,1715180675483,-12.52,-9.90,6.17,-0.19,1.65,-0.12
11,1715180675515,-11.65,-9.47,5.95,-0.81,0.44,-0.25
11,1715180675548,-9.44,-9.84,5.24,-0.67,0.37,-0.03
11,1715180675579,-8.99,-9.33,4.03,-0.05,-0.01,0.28
11,1715180675612,-8.29,-8.57,3.01,0.41,-0.31,0.38
11,1715180675643,-8.32,-7.55,2.46,0.38,-0.71,0.71
11,1715180675675,-5.88,-8.16,2.17,0.47,-0.79,1.46
11,1715180675708,-3.83,-7.86,2.00,0.75,-0.34,0.87
12,1715180678752,-6.67,-7.37,1.18,0.35,0.37,0.05
12,1715180678785,-6.85,-7.18,1.20,0.31,0.23,0.05
12,1715180678816,-6.73,-7.26,1.03,0.24,-0.01,-0.02
12,1715180678849,-6.39,-7.26,0.97,0.22,-0.02,-0.02
12,1715180678881,-6.27,-7.44,0.85,0.23,0.03,-0.00
12,1715180678913,-6.55,-7.31,0.80,0.17,-0.11,-0.04
12,1715180678945,-6.08,-7.44,0.67,0.18,-0.11,-0.05
12,1715180678977,-6.00,-7.44,0.65,0.25,0.06,0.02
12,1715180679009,-6.46,-7.28,0.56,0.22,0.06,0.02
12,1715180679042,-6.53,-7.29,0.50,0.11,-0.27,-0.06
12,1715180679073,-5.91,-7.35,0.47,0.10,-0.23,-0.08
12,1715180679105,-5.83,-7.47,0.66,0.18,0.13,0.02
12,1715180679137,-6.03,-7.41,0.70,0.20,0.23,0.01
12,1715180679169,-6.61,-7.32,0.92,0.10,-0.11,-0.07
12,1715180679202,-6.08,-7.28,1.40,-0.04,-0.21,-0.16
12,1715180679234,-6.12,-7.81,2.04,0.02,-0.03,-0.10
12,1715180679267,-6.80,-7.61,2.33,0.10,-0.05,-0.07
12,1715180679300,-7.71,-7.43,3.11,0.02,-0.51,-0.14
12,1715180679331,-7.50,-8.09,4.24,-0.11,-0.93,-0.22
12,1715180679363,-6.52,-9.30,5.35,0.28,-0.41,-0.09
12,1715180679395,-9.50,-8.64,5.47,1.05,0.06,0.30
12,1715180679427,-11.33,-8.59,6.95,1.24,-0.45,0.65
12,1715180679460,-11.24,-9.60,6.64,1.59,-1.27,0.86
12,1715180679492,-10.68,-9.07,6.14,2.00,-1.24,1.19
12,1715180679525,-11.37,-9.74,6.90,2.35,-0.99,1.60
12,1715180679557,-13.09,-9.34,6.06,2.92,-1.72,1.87
12,1715180679589,-12.21,-8.59,5.84,2.85,-2.23,1.89
12,1715180679621,-11.60,-9.93,6.91,2.96,-2.07,1.97
12,1715180679654,-13.47,-9.41,6.64,3.82,-3.36,2.17
12,1715180679685,-11.56,-9.10,6.26,4.13,-3.70,2.05
12,1715180679718,-8.39,-7.41,5.21,4.32,-2.68,2.11
12,1715180679749,-11.38,-6.66,5.91,4.37,-3.09,2.49
12,1715180679781,-5.88,-4.63,5.37,4.37,-4.37,2.27
12,1715180679814,-4.78,-4.11,5.78,4.31,-2.98,2.15
12,1715180679847,-6.93,-3.28,6.42,4.37,-3.48,2.38
12,1715180679879,-2.51,-1.43,4.08,4.37,-2.87,2.91
12,1715180679910,-1.75,1.52,3.68,4.37,-2.17,2.69
12,1715180679943,-0.25,0.52,3.29,4.37,-2.04,2.46
12,1715180679974,2.95,2.60,0.02,4.36,-1.40,2.31
12,1715180680007,3.37,4.34,-1.00,3.44,-1.25,1.92
12,1715180680039,5.59,4.15,-1.83,2.69,-1.18,1.50
12,1715180680071,6.27,5.08,-2.20,2.38,-0.68,1.31
12,1715180680103,6.13,6.03,-2.73,1.59,-0.66,1.05
12,1715180680135,7.22,6.06,-2.37,1.20,-0.33,0.63
12,1715180680167,7.53,6.08,-2.70,1.01,0.17,0.34
12,1715180680199,6.70,7.10,-2.63,0.35,0.17,-0.03
12,1715180680231,7.26,6.68,-2.20,-0.07,0.25,-0.30
12,1715180680263,7.22,6.83,-1.42,-0.21,0.54,-0.54
12,1715180680296,7.36,6.65,-0.88,-0.66,0.50,-0.96
12,1715180680327,5.93,6.55,-0.88,-0.96,0.63,-1.39
12,1715180680359,4.99,6.78,0.23,-1.27,0.62,-1.52
12,1715180680392,4.74,5.84,0.37,-1.67,0.52,-1.79
12,1715180680424,3.51,5.85,-1.02,-2.20,1.00,-2.14
12,1715180680456,1.67,4.23,1.57,-2.59,0.89,-2.14
12,1715180680488,1.63,4.62,2.68,-3.06,1.06,-2.18
12,1715180680520,0.98,3.15,0.25,-3.68,1.88,-2.96
12,1715180680552,-3.24,2.81,4.90,-4.21,1.23,-2.90
12,1715180680584,-1.02,0.84,5.16,-4.00,1.51,-2.56
12,1715180680617,-2.66,-0.58,4.21,-4.37,2.54,-2.64
12,1715180680649,-7.86,-2.86,7.02,-4.37,2.61,-3.17
12,1715180680681,-6.16,-3.49,5.83,-4.37,1.45,-2.82
12,1715180680714,-4.77,-5.69,6.33,-4.37,3.13,-1.87
12,1715180680745,-8.88,-7.87,7.87,-4.37,3.41,-2.15
12,1715180680777,-7.66,-9.48,6.80,-3.89,1.61,-2.89
13,1715180683812,-5.71,-7.36,1.34,0.15,0.05,-0.06
13,1715180683844,-6.26,-7.23,1.52,0.14,0.18,-0.02
13,1715180683876,-6.48,-7.40,1.71,0.10,-0.08,-0.10
13,1715180683908,-5.90,-7.41,1.54,0.12,-0.05,-0.13
13,1715180683940,-5.98,-7.42,1.51,0.19,0.24,-0.03
13,1715180683971,-6.78,-7.21,1.64,0.15,0.16,-0.01
13,1715180684004,-6.31,-7.33,1.66,0.10,-0.20,-0.12
13,1715180684036,-5.89,-7.45,1.53,0.12,-0.03,-0.10
13,1715180684068,-6.39,-7.33,1.73,0.13,0.17,-0.01
13,1715180684100,-6.76,-7.43,1.85,0.12,-0.04,-0.06
13,1715180684132,-6.50,-7.26,1.81,0.10,-0.18,-0.09
13,1715180684165,-6.00,-7.41,1.74,0.13,-0.05,-0.06
13,1715180684196,-6.29,-7.55,1.86,0.20,0.10,-0.02
13,1715180684229,-6.92,-7.36,1.94,0.18,-0.03,-0.00
13,1715180684260,-6.28,-7.45,1.91,0.16,-0.23,-0.06
13,1715180684292,-6.25,-7.23,2.04,0.13,-0.11,-0.02
13,1715180684325,-7.32,-7.30,2.84,0.01,-0.12,0.06
13,1715180684357,-7.27,-7.54,3.70,-0.10,-0.58,-0.00
13,1715180684389,-7.39,-7.93,4.57,-0.07,-0.64,-0.02
13,1715180684422,-8.02,-8.53,6.51,-0.07,-0.44,0.11
13,1715180684454,-8.88,-9.67,7.60,0.35,-0.36,0.25
13,1715180684486,-12.10,-9.61,8.29,1.08,-0.92,0.64
13,1715180684518,-10.57,-10.41,8.01,1.60,-1.61,1.00
13,1715180684550,-10.47,-10.80,7.91,2.16,-1.14,1.22
13,1715180684582,-12.34,-10.18,7.15,2.72,-1.19,1.55
13,1715180684615,-12.81,-10.11,7.09,2.93,-1.96,1.80
13,1715180684647,-11.79,-10.64,6.73,3.29,-2.26,1.76
13,1715180684679,-13.19,-10.28,6.09,4.03,-2.96,1.86
13,1715180684712,-10.97,-9.01,6.25,4.37,-3.25,2.08
13,1715180684743,-9.85,-9.50,5.99,4.37,-3.13,2.11
13,1715180684776,-11.00,-6.98,5.69,4.37,-3.42,2.38
13,1715180684808,-8.59,-6.66,5.44,4.37,-4.37,2.29
13,1715180684840,-6.28,-5.44,6.15,4.37,-4.37,2.26
13,1715180684872,-4.33,-3.64,4.46,4.37,-3.47,2.26
13,1715180684905,-2.88,-0.80,4.36,4.37,-2.04,2.38
13,1715180684936,-2.95,-0.51,3.27,4.37,-2.36,2.11
13,1715180684969,-1.05,1.23,1.78,4.37,-1.72,2.33
13,1715180685001,0.12,2.53,0.29,4.11,-1.64,2.17
13,1715180685033,2.51,2.93,-1.62,3.88,-1.04,2.05
13,1715180685065,4.15,4.53,-2.29,3.23,-0.94,2.08
13,1715180685097,5.66,4.47,-2.99,2.39,-1.12,1.83
13,1715180685129,7.67,4.56,-4.19,2.10,-0.50,1.42
13,1715180685162,8.37,5.69,-4.58,1.47,-0.23,1.00
13,1715180685194,9.39,5.55,-4.94,0.78,-0.05,0.43
13,1715180685227,9.25,5.79,-4.38,0.22,0.27,-0.10
13,1715180685259,9.33,6.03,-3.69,-0.27,0.36,-0.59
13,1715180685291,8.71,6.05,-2.95,-0.74,0.42,-1.12
13,1715180685324,7.81,6.06,-2.38,-0.96,0.65,-1.50
13,1715180685355,6.58,5.78,-2.05,-1.34,0.79,-1.90
13,1715180685387,5.17,5.36,-1.50,-1.71,0.86,-2.25
13,1715180685420,3.12,4.89,-1.65,-2.04,1.29,-2.37
13,1715180685453,1.61,4.24,0.01,-2.92,1.22,-2.64
13,1715180685485,-1.01,3.61,1.44,-3.89,1.51,-3.06
13,1715180685517,-2.92,2.77,1.88,-4.37,2.02,-3.22
13,1715180685549,-4.11,0.68,4.59,-4.37,1.35,-2.88
13,1715180685582,-1.93,-1.53,5.86,-4.37,1.97,-2.58
13,1715180685613,-3.99,-1.44,3.47,-4.37,2.65,-2.66
13,1715180685646,-2.37,-4.33,6.35,-4.37,2.29,-2.76
13,1715180685678,-5.03,-6.19,6.52,-4.37,3.24,-2.81
13,1715180685710,-10.77,-7.29,4.95,-4.37,3.51,-3.10
13,1715180685743,-9.15,-9.49,8.52,-4.37,1.89,-2.92
13,1715180685775,-7.26,-11.51,7.68,-4.14,2.51,-2.90
13,1715180685807,-11.31,-13.12,6.49,-3.34,1.91,-2.82
13,1715180685839,-8.45,-12.69,7.41,-3.31,1.55,-2.81
14,1715180688875,-6.58,-7.51,1.85,0.18,-0.06,-0.01
14,1715180688907,-5.78,-7.47,1.87,0.17,-0.13,-0.07
14,1715180688940,-5.70,-7.50,1.86,0.22,0.15,0.01
14,1715180688972,-6.35,-7.48,1.86,0.21,0.15,0.02
14,1715180689004,-6.31,-7.54,1.96,0.16,-0.13,-0.05
14,1715180689036,-5.71,-7.53,1.92,0.18,-0.07,-0.05
14,1715180689069,-5.82,-7.54,1.85,0.24,0.19,0.01
14,1715180689101,-6.37,-7.49,1.88,0.23,0.15,0.02
14,1715180689133,-6.16,-7.54,1.86,0.18,-0.10,-0.06
14,1715180689166,-5.84,-7.59,1.70,0.18,-0.02,-0.06
14,1715180689197,-6.01,-7.42,1.81,0.18,0.08,-0.02
14,1715180689230,-6.26,-7.56,1.83,0.13,-0.15,-0.08
14,1715180689262,-5.70,-7.50,1.68,0.12,-0.23,-0.14
14,1715180689294,-5.60,-7.76,1.83,0.17,0.04,-0.07
14,1715180689327,-6.10,-7.52,1.83,0.21,0.23,-0.00
14,1715180689359,-6.54,-7.34,2.20,0.16,-0.08,-0.04
14,1715180689391,-6.30,-7.38,2.44,0.08,-0.22,-0.13
14,1715180689424,-6.75,-7.42,3.63,-0.03,-0.03,-0.07
14,1715180689456,-8.26,-7.56,4.86,0.08,-0.24,-0.02
14,1715180689488,-9.80,-7.46,5.27,0.42,-0.67,0.12
14,1715180689520,-9.93,-7.26,5.99,0.49,-0.71,0.43
14,1715180689553,-12.43,-7.67,6.60,0.71,-1.08,0.90
14,1715180689585,-12.74,-8.24,6.71,1.04,-1.65,1.32
14,1715180689617,-12.23,-8.62,6.94,1.46,-1.99,1.82
14,1715180689650,-12.66,-8.57,6.68,1.79,-2.35,2.20
14,1715180689682,-12.30,-9.05,7.27,2.14,-2.45,2.33
14,1715180689714,-12.50,-8.63,7.46,2.48,-2.68,2.55
14,1715180689747,-11.79,-9.21,8.83,2.75,-2.96,2.73
14,1715180689779,-12.09,-8.59,8.46,3.36,-3.22,2.78
14,1715180689811,-9.16,-8.07,8.15,3.70,-3.05,2.84
14,1715180689843,-10.93,-7.05,7.74,3.89,-3.08,3.09
14,1715180689875,-7.96,-7.46,6.96,4.17,-3.70,2.88
14,1715180689907,-6.65,-5.57,6.46,4.37,-3.32,3.02
14,1715180689940,-2.99,-3.12,4.39,4.37,-2.72,2.96
14,1715180689972,-3.97,-1.46,5.28,4.03,-2.26,2.85
14,1715180690004,-2.12,-3.93,3.51,4.37,-3.16,2.92
14,1715180690036,5.66,1.02,0.07,4.37,-1.85,3.12
14,1715180690068,1.58,2.35,-0.02,3.66,-0.70,2.82
14,1715180690101,3.45,2.39,0.06,2.83,-1.60,2.12
14,1715180690134,7.04,3.28,-1.33,2.62,-0.77,1.62
14,1715180690165,6.28,5.93,-0.87,1.76,-0.20,1.20
14,1715180690197,7.18,5.71,-1.14,0.95,-0.39,0.72
14,1715180690230,7.20,6.17,-0.19,0.39,-0.22,0.27
14,1715180690262,7.41,6.77,-0.13,0.15,0.04,-0.17
14,1715180690295,7.60,6.50,-0.15,-0.05,0.33,-0.53
14,1715180690326,7.50,6.67,-0.19,-0.40,0.38,-0.93
14,1715180690359,6.61,6.53,0.33,-0.81,0.43,-1.39
14,1715180690391,5.85,5.38,1.72,-1.15,0.42,-1.73
14,1715180690423,4.62,5.33,2.75,-1.40,0.52,-2.09
14,1715180690456,4.73,4.73,2.45,-1.36,0.95,-2.43
14,1715180690488,3.70,2.91,2.07,-1.38,1.45,-2.56
14,1715180690520,0.37,2.16,1.84,-1.85,1.27,-2.93
14,1715180690552,1.22,1.61,1.50,-2.52,1.44,-3.26
14,1715180690584,0.29,-0.69,2.06,-3.11,2.16,-3.94
14,1715180690616,-7.64,-2.41,5.47,-4.29,1.02,-4.26
14,1715180690649,-3.15,-4.15,5.16,-3.61,1.75,-4.30
14,1715180690681,-4.67,-5.33,4.33,-3.12,3.56,-3.64
14,1715180690713,-9.36,-5.14,6.05,-3.86,2.96,-3.85
14,1715180690745,-10.66,-7.75,7.77,-4.37,1.53,-4.37
14,1715180690777,-6.92,-10.65,5.61,-3.67,2.53,-4.37
14,1715180690808,-13.61,-11.74,6.86,-3.38,2.25,-3.83
14,1715180690841,-11.97,-13.32,6.89,-3.16,1.58,-3.78
14,1715180690873,-10.68,-14.29,6.23,-3.07,1.66,-4.14
14,1715180690905,-13.01,-13.69,6.08,-2.81,2.54,-3.33
15,1715180693966,-6.43,-7.13,0.87,0.19,0.15,-0.00
15,1715180693998,-6.88,-7.14,0.71,0.20,0.10,0.00
15,1715180694031,-6.62,-7.08,0.59,0.15,-0.08,-0.05
15,1715180694062,-6.41,-7.05,0.39,0.08,-0.09,-0.05
15,1715180694094,-6.46,-7.13,0.58,0.05,-0.03,-0.03
15,1715180694127,-8.25,-6.59,0.63,-0.21,-0.76,-0.10
15,1715180694158,-6.23,-7.13,0.65,-0.33,-1.50,-0.29
15,1715180694191,-4.92,-7.46,0.75,-0.21,-0.82,-0.32
15,1715180694223,-5.19,-7.48,1.08,0.10,0.31,0.01
15,1715180694255,-5.72,-7.64,1.15,0.41,1.07,0.17
15,1715180694287,-6.91,-7.22,0.93,0.50,1.15,0.17
15,1715180694319,-7.98,-6.91,0.97,0.24,0.35,0.06
15,1715180694351,-6.72,-7.17,0.68,0.03,-0.51,-0.19
15,1715180694383,-6.12,-7.28,0.64,0.01,-0.36,-0.18
15,1715180694416,-6.24,-7.39,0.65,0.09,0.08,0.00
15,1715180694448,-6.75,-7.30,0.89,0.12,0.07,0.03
15,1715180694480,-6.55,-7.27,0.82,0.10,-0.20,-0.03
15,1715180694512,-6.21,-7.15,0.88,0.06,-0.13,-0.07
15,1715180694544,-6.75,-7.07,1.53,-0.00,-0.05,-0.07
15,1715180694576,-7.09,-7.03,2.24,-0.09,-0.24,-0.14
15,1715180694608,-7.92,-6.90,3.29,-0.29,-0.48,-0.22
15,1715180694641,-8.23,-7.70,5.00,-0.58,-0.69,-0.29
15,1715180694673,-9.06,-8.37,5.85,-0.47,-0.58,-0.28
15,1715180694705,-11.72,-8.82,6.43,-0.13,-0.49,0.42
15,1715180694737,-13.41,-9.92,6.91,0.06,-1.26,1.20
15,1715180694769,-12.43,-11.29,6.86,0.94,-1.94,1.35
15,1715180694801,-12.60,-11.51,6.57,2.68,-2.45,1.19
15,1715180694834,-14.89,-10.24,5.94,2.76,-2.48,1.84
15,1715180694866,-14.00,-10.87,4.87,3.11,-2.54,2.13
15,1715180694898,-15.46,-9.93,4.97,3.12,-2.99,2.25
15,1715180694931,-15.32,-11.11,5.32,3.27,-4.37,2.04
15,1715180694962,-12.74,-11.07,4.37,4.26,-4.37,1.52
15,1715180694994,-11.19,-9.84,5.14,4.37,-4.30,1.68
15,1715180695026,-11.97,-8.41,4.33,4.37,-4.37,2.50
15,1715180695059,-8.62,-7.17,3.74,4.37,-4.37,2.31
15,1715180695091,-4.46,-6.14,3.23,4.37,-4.04,2.18
15,1715180695124,-3.15,-2.87,2.73,4.37,-3.10,2.74
15,1715180695156,-0.98,-1.46,0.51,4.37,-2.42,2.52
15,1715180695188,-1.07,-1.32,1.41,4.37,-2.53,2.65
15,1715180695221,3.15,1.14,-0.57,4.37,-1.28,2.65
15,1715180695252,2.96,3.02,-1.25,3.61,-0.95,2.22
15,1715180695285,4.40,2.55,-0.33,2.78,-1.25,1.66
15,1715180695317,7.45,3.45,-1.77,2.81,-0.89,1.06
15,1715180695349,8.21,5.98,-2.58,2.16,-0.58,0.99
15,1715180695381,8.86,6.05,-2.13,1.47,-0.54,0.88
15,1715180695413,9.48,6.70,-3.16,0.92,-0.01,0.33
15,1715180695446,8.00,6.89,-2.60,0.20,0.14,-0.17
15,1715180695479,8.78,6.58,-1.77,-0.17,0.02,-0.45
15,1715180695510,8.34,6.89,-2.50,-0.36,0.67,-0.84
15,1715180695543,6.44,6.56,-2.14,-1.08,0.50,-1.19
15,1715180695575,6.83,5.77,-1.96,-1.53,0.61,-1.40
15,1715180695607,6.04,4.62,-1.76,-1.88,1.07,-1.87
15,1715180695639,3.95,3.39,-1.21,-2.64,1.16,-2.33
15,1715180695671,2.91,1.35,-0.15,-3.15,1.24,-2.61
15,1715180695704,1.46,0.59,-0.04,-3.58,1.85,-2.95
15,1715180695737,-1.07,-0.30,-0.12,-4.22,2.46,-3.37
15,1715180695768,-3.73,-3.87,0.63,-4.37,1.72,-3.48
15,1715180695801,-4.30,-5.99,3.33,-4.37,2.27,-3.44
15,1715180695833,-7.30,-7.58,4.72,-4.37,2.46,-3.64
15,1715180695865,-8.27,-13.26,5.88,-4.37,1.50,-3.93
15,1715180695898,-8.76,-14.13,9.01,-4.37,1.93,-3.29
15,1715180695929,-9.83,-16.80,9.05,-4.37,2.82,-3.03
15,1715180695962,-10.67,-19.30,10.96,-4.37,1.93,-3.34
15,1715180695994,-10.30,-18.00,10.00,-3.99,1.88,-2.92
16,1715180699033,-2.67,-8.79,2.76,0.16,-0.02,0.01
16,1715180699066,-3.12,-8.92,2.97,0.14,0.23,0.04
16,1715180699098,-3.54,-9.05,3.04,0.13,0.09,0.00
16,1715180699130,-3.32,-9.02,3.07,0.16,-0.06,-0.01
16,1715180699163,-3.26,-8.96,2.85,0.14,0.04,0.02
16,1715180699194,-3.27,-8.88,2.98,0.11,0.07,0.02
16,1715180699226,-3.36,-9.05,2.97,0.10,-0.06,-0.02
16,1715180699258,-3.39,-8.93,3.09,0.11,-0.06,-0.00
16,1715180699291,-3.19,-9.10,3.77,0.08,-0.03,0.00
16,1715180699323,-3.39,-9.25,4.38,0.11,-0.13,-0.02
16,1715180699355,-3.14,-9.02,5.20,0.06,-0.22,-0.05
16,1715180699387,-3.43,-9.40,6.27,0.07,-0.23,-0.09
16,1715180699420,-3.39,-10.32,7.21,0.23,-0.22,-0.07
16,1715180699451,-4.06,-10.75,8.27,0.51,-0.36,-0.01
16,1715180699484,-4.44,-11.51,8.67,1.03,-0.59,0.10
16,1715180699517,-4.18,-11.55,8.83,1.41,-0.32,0.23
16,1715180699548,-6.85,-12.66,9.64,1.86,-0.51,0.48
16,1715180699580,-4.71,-13.30,10.39,2.39,-0.53,0.80
16,1715180699613,-8.00,-13.60,9.39,3.32,-0.39,0.96
16,1715180699645,-8.47,-14.30,10.80,3.68,-1.30,1.08
16,1715180699677,-8.70,-15.38,9.46,4.37,-1.63,1.00
16,1715180699709,-8.18,-14.49,8.50,4.37,-1.78,1.37
16,1715180699741,-7.18,-14.09,9.00,4.37,-1.40,1.63
16,1715180699774,-9.92,-13.37,7.28,4.37,-2.12,1.93
16,1715180699806,-5.37,-12.17,6.85,4.37,-2.29,1.94
16,1715180699838,-5.16,-10.13,5.72,4.37,-1.13,2.00
16,1715180699870,-6.32,-7.28,4.09,4.37,-1.62,2.31
16,1715180699902,-3.48,-5.30,2.56,4.37,-1.75,2.32
16,1715180699934,-0.66,-2.83,2.23,4.37,-1.35,2.37
16,1715180699966,-1.94,-1.73,2.04,4.37,-1.50,2.36
16,1715180699998,1.99,1.07,-0.77,4.37,-1.25,2.34
16,1715180700030,2.77,2.10,-1.54,4.37,-0.91,2.35
16,1715180700062,4.58,3.61,-3.11,3.95,-0.76,2.18
16,1715180700094,6.51,5.83,-4.28,2.97,-0.59,1.73
16,1715180700126,7.99,6.08,-5.15,2.12,-0.53,1.25
16,1715180700159,8.93,7.19,-5.75,1.26,-0.38,0.67
16,1715180700192,9.27,7.49,-6.13,0.33,0.00,-0.05
16,1715180700224,8.51,7.07,-5.93,-0.55,0.30,-0.72
16,1715180700256,7.39,6.77,-4.93,-1.23,0.53,-1.16
16,1715180700289,6.49,5.74,-4.13,-1.94,0.79,-1.55
16,1715180700321,5.34,3.91,-3.18,-2.52,1.01,-2.01
16,1715180700353,3.72,3.14,-2.58,-2.93,1.39,-2.40
16,1715180700385,1.25,1.15,-0.40,-3.69,1.18,-2.72
16,1715180700417,1.03,-1.08,0.45,-4.08,1.53,-3.00
16,1715180700449,-1.51,-3.22,0.59,-4.37,1.84,-3.39
16,1715180700482,-4.88,-4.38,3.12,-4.37,2.46,-3.76
16,1715180700514,-9.08,-5.66,5.16,-4.37,1.81,-3.64
16,1715180700546,-5.41,-9.90,4.06,-4.37,1.31,-3.44
16,1715180700578,-3.99,-12.18,6.39,-4.37,1.78,-3.35
16,1715180700610,-5.83,-14.97,6.87,-4.37,1.81,-3.24
16,1715180700643,-8.50,-17.54,6.32,-4.37,1.40,-3.45
16,1715180700675,-3.97,-19.61,8.25,-4.37,1.86,-3.19
16,1715180700707,-8.24,-19.61,8.38,-4.37,3.03,-3.32
16,1715180700739,-14.71,-19.61,11.60,-4.33,0.42,-3.16
16,1715180700771,-6.81,-17.26,13.11,-3.97,0.62,-2.10
16,1715180700803,-12.74,-14.75,11.92,-2.64,2.37,-0.62
16,1715180700835,-11.70,-13.93,10.93,-1.27,1.31,1.10
16,1715180700868,-8.52,-11.68,8.76,-0.11,0.44,1.13
16,1715180700900,-9.58,-10.24,6.63,0.35,-1.26,0.81
16,1715180700932,-2.40,-10.64,5.39,0.89,-1.36,0.63
16,1715180700964,-1.13,-7.32,3.70,1.04,-0.18,0.60
16,1715180700996,-3.19,-7.63,3.76,0.70,0.51,0.31
16,1715180701029,-5.30,-7.81,3.51,0.06,0.06,-0.12
16,1715180701060,-4.77,-8.89,3.19,0.01,-0.30,-0.09
17,1715180704109,-4.12,-8.54,2.96,-0.38,0.26,0.15
17,1715180704142,-4.30,-8.90,2.81,-0.45,-0.07,0.12
17,1715180704175,-4.05,-8.78,2.90,-0.38,-0.10,0.05
17,1715180704206,-3.37,-8.94,2.81,-0.27,0.22,0.04
17,1715180704238,-4.46,-9.01,3.06,-0.20,0.22,0.07
17,1715180704271,-3.98,-9.16,3.22,-0.02,0.20,0.04
17,1715180704303,-4.36,-8.85,2.95,0.10,0.44,0.11
17,1715180704334,-4.02,-8.95,2.78,0.17,0.47,0.13
17,1715180704367,-4.42,-8.79,2.64,0.18,0.57,0.08
17,1715180704399,-5.28,-8.84,2.55,0.11,0.39,0.15
17,1715180704431,-5.10,-8.76,2.89,0.05,0.01,0.15
17,1715180704463,-4.76,-8.82,3.29,0.03,-0.28,0.08
17,1715180704495,-4.03,-9.40,3.65,0.05,-0.24,0.06
17,1715180704527,-5.33,-9.10,4.29,-0.01,0.03,0.15
17,1715180704560,-6.09,-8.32,8.14,-0.75,-0.33,0.11
17,1715180704592,-8.56,-10.91,12.79,-1.38,-0.81,-0.10
17,1715180704625,-13.18,-16.17,12.17,-1.53,-1.16,1.32
17,1715180704656,-11.31,-19.61,13.19,0.84,-2.97,1.33
17,1715180704688,-13.21,-19.61,9.11,4.37,-3.55,0.44
17,1715180704721,-13.25,-19.61,6.96,4.37,-3.59,0.91
17,1715180704753,-14.24,-17.40,4.70,4.37,-2.51,2.45
17,1715180704786,-12.19,-16.68,3.08,4.37,-2.93,2.37
17,1715180704818,-11.96,-16.28,3.37,4.37,-3.98,1.87
17,1715180704850,-10.17,-13.09,2.04,4.37,-4.15,1.91
17,1715180704882,-7.52,-11.57,3.05,4.37,-3.29,2.25
17,1715180704914,-5.24,-8.74,0.60,4.37,-2.69,2.42
17,1715180704946,-4.49,-5.68,0.61,4.37,-2.99,2.45
17,1715180704978,-1.30,-4.02,1.20,4.37,-2.80,2.21
17,1715180705010,1.52,-2.08,-1.50,4.37,-1.83,2.26
17,1715180705042,2.11,0.97,-2.56,4.37,-1.33,2.17
17,1715180705075,4.08,3.06,-2.84,3.95,-1.31,1.78
17,1715180705106,5.86,3.41,-4.18,3.17,-0.80,1.37
17,1715180705139,7.26,5.07,-4.72,2.43,-0.42,0.94
17,1715180705171,7.89,5.54,-5.55,1.52,-0.07,0.56
17,1715180705203,8.11,5.77,-5.56,0.87,0.76,0.13
17,1715180705236,7.41,5.93,-4.50,-0.38,0.56,-0.30
17,1715180705268,8.40,4.26,-3.31,-1.01,0.85,-0.86
17,1715180705300,7.09,3.83,-3.43,-1.41,1.55,-1.53
17,1715180705333,3.91,3.82,-3.81,-2.49,1.63,-2.12
17,1715180705365,2.89,1.63,-2.69,-3.16,1.82,-2.39
17,1715180705397,0.67,-0.57,-0.79,-3.74,2.06,-2.71
17,1715180705430,-1.43,-2.17,0.94,-4.37,2.31,-3.11
17,1715180705462,-3.93,-4.17,1.95,-4.37,2.30,-3.42
17,1715180705494,-5.21,-6.23,3.90,-4.37,2.84,-3.13
17,1715180705526,-6.58,-8.47,6.14,-4.37,2.59,-3.61
17,1715180705559,-8.25,-12.88,7.20,-4.37,2.62,-4.34
17,1715180705590,-7.31,-17.53,8.42,-4.37,2.48,-3.55
17,1715180705622,-7.93,-16.08,9.34,-4.37,2.59,-3.23
17,1715180705655,-9.75,-19.61,9.20,-4.37,2.10,-4.17
17,1715180705687,-9.84,-19.61,9.58,-4.37,2.90,-3.53
17,1715180705720,-11.43,-19.61,12.62,-4.37,3.25,-2.91
17,1715180705752,-16.04,-18.08,13.20,-2.27,1.64,-1.69
17,1715180705785,-10.86,-11.86,11.34,-1.02,2.12,-0.45
17,1715180705817,-12.37,-10.44,10.99,-0.78,1.42,0.32
17,1715180705848,-8.57,-10.61,9.90,-0.15,-0.26,0.55
17,1715180705880,-5.71,-9.38,7.55,0.54,-0.43,0.35
17,1715180705917,-5.48,-8.22,5.66,0.75,0.33,0.63
17,1715180705950,-7.07,-8.32,5.32,0.67,-0.23,0.91
17,1715180705982,-4.66,-8.65,4.32,0.87,-0.87,0.67
17,1715180706015,-3.34,-8.30,3.07,1.06,-0.02,0.64
17,1715180706047,-5.34,-7.80,2.26,0.87,0.50,0.88
17,1715180706079,-6.04,-8.43,2.48,0.80,-0.43,0.82
17,1715180706111,-3.85,-8.38,1.69,0.79,-0.64,0.57
17,1715180706143,-4.33,-7.83,1.53,0.59,-0.28,0.50
18,1715180709185,-7.41,-9.21,4.42,2.37,-1.50,0.95
18,1715180709217,-6.81,-8.60,2.52,2.42,-1.03,1.12
18,1715180709249,-6.17,-6.84,1.27,2.26,-0.72,1.21
18,1715180709281,-4.25,-5.90,0.48,1.89,-0.52,1.15
18,1715180709313,-2.93,-4.18,0.71,1.26,-0.16,0.99
18,1715180709345,-3.18,-3.59,2.88,0.55,0.01,0.54
18,1715180709377,-4.95,-3.25,5.54,-0.11,-1.07,0.13
18,1715180709409,-4.76,-4.71,7.89,-0.31,-1.30,-0.30
18,1715180709442,-5.59,-5.71,11.11,0.10,-0.96,-0.03
18,1715180709474,-9.48,-7.43,13.91,1.01,-0.99,0.47
18,1715180709507,-8.07,-7.70,14.06,2.09,-1.81,0.76
18,1715180709539,-6.54,-5.95,13.84,2.51,-0.60,0.99
18,1715180709571,-10.94,-6.80,12.50,3.00,-1.29,1.31
18,1715180709603,-6.98,-6.57,11.80,3.41,-2.36,1.34
18,1715180709635,-6.04,-5.50,10.05,3.86,-1.70,1.40
18,1715180709667,-6.58,-4.01,8.76,4.17,-1.85,1.72
18,1715180709700,-7.11,-3.58,8.93,4.11,-2.94,1.82
18,1715180709732,-4.43,-3.11,6.98,4.37,-3.50,1.51
18,1715180709764,-2.84,-0.76,6.97,4.37,-2.48,1.68
18,1715180709796,-4.93,-1.63,7.35,4.37,-2.73,1.56
18,1715180709828,0.90,0.03,4.02,4.37,-2.27,1.95
18,1715180709861,0.08,3.00,2.46,4.37,-1.31,2.02
18,1715180709893,-0.98,2.43,2.78,4.37,-2.20,1.81
18,1715180709925,3.16,2.88,-1.62,4.37,-1.24,2.03
18,1715180709957,4.86,4.19,-4.14,4.37,-0.72,2.18
18,1715180709989,5.89,4.66,-5.91,3.34,-0.97,1.88
18,1715180710021,8.06,4.80,-6.62,2.48,-0.84,1.58
18,1715180710053,9.12,5.30,-6.87,1.74,-0.40,1.14
18,1715180710086,9.65,5.35,-6.90,0.98,0.20,0.55
18,1715180710118,9.21,5.78,-5.31,0.08,0.13,-0.07
18,1715180710150,9.19,6.40,-3.90,-0.35,0.28,-0.48
18,1715180710182,8.60,5.90,-3.90,-0.62,0.53,-0.95
18,1715180710215,8.08,5.61,-3.82,-1.13,0.44,-1.38
18,1715180710247,7.22,4.83,-4.07,-1.52,0.83,-1.83
18,1715180710279,5.80,3.82,-3.51,-2.11,1.05,-2.27
18,1715180710311,4.17,2.34,-3.71,-2.68,1.44,-2.71
18,1715180710343,1.38,0.88,-3.62,-3.39,1.91,-3.01
18,1715180710375,-0.81,-0.11,-1.98,-4.19,1.97,-3.12
18,1715180710407,-2.09,-1.45,-0.23,-4.37,2.14,-3.36
18,1715180710439,-5.63,-3.07,7.32,-4.37,2.39,-3.30
18,1715180710471,-4.19,-3.55,6.74,-4.37,2.33,-3.15
18,1715180710503,-7.82,-5.44,8.23,-4.37,4.19,-3.29
18,1715180710536,-12.55,-8.56,15.70,-4.37,2.66,-3.75
18,1715180710568,-8.23,-6.95,8.69,-4.37,3.25,-2.93
18,1715180710600,-14.09,-7.78,7.05,-4.37,1.85,-2.05
18,1715180710633,-9.53,-9.88,7.87,-3.32,0.04,-0.83
18,1715180710665,-2.01,-6.74,9.04,-4.17,1.90,-1.15
18,1715180710697,-8.78,-11.52,10.82,-4.37,2.09,-2.08
18,1715180710729,-6.82,-10.69,7.12,-3.48,0.54,-2.11
18,1715180710762,-2.32,-13.07,9.53,-3.46,1.38,-1.68
18,1715180710794,-3.92,-14.79,8.42,-2.48,3.34,-1.72
18,1715180710827,-9.34,-14.10,5.97,-1.21,3.68,-1.07
18,1715180710859,-9.77,-12.25,3.98,-0.45,3.86,-1.01
18,1715180710891,-13.93,-9.99,3.54,-0.65,2.49,-0.76
18,1715180710923,-12.53,-9.71,5.23,-0.63,0.81,-0.26
18,1715180710955,-7.91,-10.49,5.05,-0.03,0.78,-0.10
18,1715180710988,-11.69,-7.38,3.46,0.90,1.29,0.64
18,1715180711020,-8.86,-8.09,2.96,0.72,-0.57,1.23
18,1715180711053,-5.88,-7.47,1.99,0.58,-0.64,0.61
18,1715180711084,-5.18,-7.40,1.65,0.47,-0.03,0.54
18,1715180711116,-5.36,-7.19,1.46,0.53,0.57,0.76
18,1715180711148,-6.33,-7.59,1.51,0.57,0.56,0.85
18,1715180711180,-6.86,-7.47,1.30,0.55,-0.19,0.66
18,1715180711212,-6.09,-7.26,0.73,0.48,-0.59,0.47
19,1715180714266,-5.98,-7.45,1.80,0.21,0.02,-0.13
19,1715180714299,-6.02,-7.50,1.74,0.21,0.05,-0.14
19,1715180714332,-6.13,-7.49,1.83,0.21,0.11,-0.13
19,1715180714364,-6.26,-7.33,1.75,0.23,0.11,-0.11
19,1715180714396,-6.37,-7.32,1.81,0.23,0.08,-0.09
19,1715180714428,-6.29,-7.33,1.88,0.21,0.06,-0.06
19,1715180714460,-6.42,-7.37,1.99,0.19,0.00,-0.05
19,1715180714492,-6.28,-7.32,2.06,0.19,0.01,-0.02
19,1715180714524,-6.26,-7.30,2.12,0.17,-0.07,-0.01
19,1715180714557,-6.22,-7.52,2.12,0.16,-0.16,-0.03
19,1715180714590,-6.12,-7.56,2.06,0.17,-0.14,-0.02
19,1715180714622,-6.17,-7.55,2.15,0.21,-0.11,0.00
19,1715180714654,-6.45,-7.25,2.17,0.17,-0.21,0.02
19,1715180714687,-6.49,-7.39,2.61,0.04,-0.53,-0.01
19,1715180714719,-6.45,-7.33,3.20,-0.02,-0.60,-0.02
19,1715180714751,-7.26,-7.65,4.86,-0.17,-0.39,0.08
19,1715180714783,-9.39,-8.94,6.10,-0.08,-0.45,0.23
19,1715180714815,-10.28,-9.01,5.83,0.37,-1.12,0.37
19,1715180714847,-10.88,-9.81,7.02,1.06,-1.94,0.94
19,1715180714879,-9.85,-10.88,7.37,1.63,-1.54,1.39
19,1715180714912,-12.70,-10.40,6.00,2.42,-2.02,1.93
19,1715180714944,-10.04,-10.46,6.23,2.99,-2.91,1.83
19,1715180714976,-11.28,-9.58,6.13,2.99,-2.30,1.80
19,1715180715008,-11.48,-9.75,5.62,3.95,-3.52,1.77
19,1715180715041,-9.53,-8.59,7.51,4.37,-3.92,2.27
19,1715180715073,-6.81,-7.34,6.14,4.37,-2.71,2.24
19,1715180715105,-11.26,-7.48,7.91,4.37,-4.37,2.44
19,1715180715137,-1.59,-3.59,5.73,4.37,-2.29,2.63
19,1715180715169,-3.48,-0.53,3.96,4.37,-1.05,2.32
19,1715180715202,-1.20,-2.58,4.06,4.37,-1.52,2.29
19,1715180715234,2.21,3.42,1.23,4.37,-0.61,2.39
19,1715180715266,3.17,3.57,-0.46,2.52,-0.79,1.32
19,1715180715299,4.68,3.19,0.05,1.94,-0.38,0.90
19,1715180715331,5.03,4.68,-0.77,1.23,-0.13,0.51
19,1715180715363,5.36,5.14,-0.90,0.16,0.19,-0.19
19,1715180715395,4.28,4.55,0.03,-0.47,0.79,-0.75
19,1715180715427,3.20,4.43,1.08,-1.31,0.80,-1.25
19,1715180715459,3.22,3.39,1.08,-1.85,1.10,-1.75
19,1715180715492,1.13,2.44,1.71,-2.55,1.55,-2.35
19,1715180715524,-1.67,1.27,4.20,-2.88,1.68,-2.58
19,1715180715556,-3.14,1.05,4.71,-4.26,0.96,-2.89
19,1715180715588,-3.70,-2.12,3.91,-4.37,1.58,-3.54
19,1715180715621,-6.80,-4.98,7.44,-4.37,1.46,-3.26
19,1715180715653,-6.33,-5.06,6.60,-4.37,2.07,-2.82
19,1715180715685,-5.82,-10.96,5.79,-4.37,2.88,-3.07
19,1715180715717,-10.69,-12.62,7.81,-4.37,1.96,-3.35
19,1715180715749,-3.75,-14.44,5.65,-3.38,2.83,-2.59
19,1715180715781,-11.19,-13.67,5.39,-3.32,2.99,-2.11
19,1715180715813,-11.26,-13.76,4.83,-3.07,2.03,-1.68
19,1715180715845,-9.56,-13.29,4.30,-2.60,2.44,-1.23
19,1715180715877,-10.92,-11.87,6.11,-2.47,1.95,-0.55
19,1715180715910,-7.12,-14.34,10.81,-0.29,2.54,-0.08
19,1715180715942,-11.70,-10.16,7.72,1.64,2.64,1.10
19,1715180715974,-10.77,-6.66,3.83,1.89,1.95,1.44
19,1715180716006,-12.54,-6.44,3.06,0.82,-0.81,1.17
19,1715180716038,-6.30,-7.15,2.50,0.33,-1.54,0.19
19,1715180716070,-5.42,-6.61,1.76,0.37,-0.65,-0.05
19,1715180716102,-6.67,-6.02,1.63,0.17,-0.26,0.44
19,1715180716135,-6.99,-6.79,1.68,-0.05,-0.90,0.41
19,1715180716167,-5.54,-7.32,1.85,-0.05,-1.04,-0.00
19,1715180716199,-5.21,-7.30,1.61,0.22,-0.32,0.12
19,1715180716231,-6.10,-6.99,1.32,0.41,0.18,0.37
19,1715180716263,-6.53,-7.30,1.32,0.49,0.13,0.38
19,1715180716295,-6.20,-7.21,1.17,0.42,0.14,0.29
20,1715180719343,-6.91,-7.01,2.70,0.17,-0.15,-0.01
20,1715180719376,-7.02,-6.99,2.72,0.17,-0.25,-0.02
20,1715180719408,-6.99,-7.19,2.53,0.21,-0.28,0.03
20,1715180719440,-6.75,-7.08,2.53,0.28,-0.23,0.08
20,1715180719473,-6.87,-6.93,2.37,0.31,-0.22,0.10
20,1715180719505,-6.63,-6.90,2.17,0.32,-0.28,0.09
20,1715180719537,-6.48,-6.66,1.87,0.31,-0.25,0.10
20,1715180719569,-6.42,-6.63,1.95,0.25,-0.22,0.09
20,1715180719601,-6.28,-6.66,2.22,0.18,-0.20,0.06
20,1715180719634,-6.90,-6.79,2.51,0.16,-0.20,0.03
20,1715180719666,-6.75,-6.95,2.67,0.17,-0.25,0.03
20,1715180719699,-6.91,-6.50,2.85,0.12,-0.26,0.07
20,1715180719731,-7.96,-6.96,4.16,-0.16,-0.41,0.06
20,1715180719762,-7.74,-8.04,5.47,-0.20,-0.51,0.05
20,1715180719795,-8.71,-7.53,5.71,0.06,-0.29,0.11
20,1715180719827,-9.59,-8.42,7.45,0.07,-0.32,0.39
20,1715180719860,-10.62,-9.14,8.34,0.50,-0.41,0.80
20,1715180719892,-13.56,-9.47,7.48,1.45,-0.83,1.57
20,1715180719924,-15.59,-10.72,8.67,2.39,-1.84,1.97
20,1715180719957,-14.73,-11.74,8.04,3.03,-3.09,2.05
20,1715180719988,-14.61,-11.41,7.11,4.24,-4.04,1.95
20,1715180720021,-14.63,-11.01,7.09,4.37,-4.37,2.44
20,1715180720053,-11.70,-9.17,7.02,4.37,-4.37,2.37
20,1715180720086,-10.83,-10.06,5.95,4.37,-4.37,2.28
20,1715180720118,-4.35,-5.41,3.86,4.37,-3.92,2.79
20,1715180720149,-4.53,-3.29,1.14,4.37,-2.13,3.09
20,1715180720182,-1.40,-1.40,-0.18,4.37,-2.53,2.78
20,1715180720214,1.66,-0.46,-2.37,4.37,-1.70,2.08
20,1715180720246,2.92,1.99,-2.37,3.58,-1.18,1.82
20,1715180720278,4.11,2.72,-2.70,2.45,-1.04,1.38
20,1715180720310,5.81,4.04,-2.16,1.77,-0.32,0.90
20,1715180720342,6.86,4.72,-2.25,0.86,-0.02,0.27
20,1715180720374,6.43,5.66,-2.05,0.06,0.50,-0.36
20,1715180720407,6.49,5.78,-1.07,-0.73,0.69,-0.88
20,1715180720439,6.23,5.21,-0.18,-1.28,0.93,-1.42
20,1715180720471,4.00,4.90,-0.04,-1.81,1.55,-2.05
20,1715180720504,1.47,4.13,1.53,-2.42,1.48,-2.27
20,1715180720536,2.27,2.51,1.83,-2.94,1.60,-2.44
20,1715180720567,-0.38,1.36,1.24,-3.51,2.33,-3.15
20,1715180720600,-3.41,0.22,4.83,-3.79,2.27,-3.14
20,1715180720632,-5.36,-0.37,5.57,-4.37,1.65,-2.88
20,1715180720663,-4.43,-2.62,6.91,-4.37,2.10,-3.59
20,1715180720695,-8.13,-7.15,8.90,-4.37,3.34,-3.78
20,1715180720728,-8.46,-10.06,8.61,-4.37,2.46,-3.51
20,1715180720760,-10.27,-8.30,6.62,-4.37,2.98,-3.06
20,1715180720792,-9.15,-11.24,5.93,-4.37,3.44,-2.46
20,1715180720824,-11.57,-14.16,6.38,-4.07,2.65,-1.43
20,1715180720856,-8.87,-12.73,6.50,-2.39,1.95,-1.34
20,1715180720888,-8.68,-11.32,5.65,-1.54,1.90,-1.52
20,1715180720921,-9.70,-11.67,5.43,-1.06,1.85,-1.58
20,1715180720953,-8.85,-10.93,4.53,-0.54,2.46,-1.08
20,1715180720985,-11.14,-9.22,4.38,-0.33,2.79,-0.50
20,1715180721017,-12.10,-9.10,4.56,-0.40,1.60,0.23
20,1715180721050,-8.50,-9.83,5.05,0.89,1.73,0.18
20,1715180721082,-9.84,-7.48,2.87,1.39,1.69,0.51
20,1715180721114,-11.64,-5.75,2.31,1.02,0.52,0.89
20,1715180721147,-9.08,-6.65,1.62,0.58,-0.96,0.59
20,1715180721179,-7.00,-6.73,1.23,0.34,-1.19,0.18
20,1715180721211,-5.52,-7.00,1.24,0.38,-0.45,0.21
20,1715180721243,-6.67,-6.39,1.08,0.44,0.23,0.54
20,1715180721275,-7.05,-6.52,1.47,0.42,0.09,0.56
20,1715180721307,-6.54,-6.78,1.37,0.47,0.02,0.38
20,1715180721339,-6.94,-6.24,0.91,0.48,0.02,0.40
20,1715180721371,-7.18,-6.41,0.74,0.37,-0.35,0.39
21,1715180724409,-6.66,-6.85,1.29,0.24,-0.09,0.06
21,1715180724441,-6.28,-6.97,1.25,0.20,-0.09,0.03
21,1715180724472,-6.31,-6.97,1.21,0.17,-0.03,-0.02
21,1715180724504,-6.32,-6.96,1.33,0.15,-0.03,-0.06
21,1715180724537,-6.45,-7.02,1.48,0.14,-0.02,-0.10
21,1715180724568,-6.55,-6.98,1.55,0.18,0.05,-0.09
21,1715180724601,-6.78,-6.86,1.59,0.23,0.12,-0.06
21,1715180724632,-7.36,-6.62,1.39,0.18,0.09,-0.02
21,1715180724665,-7.17,-6.83,1.64,0.12,-0.04,-0.01
21,1715180724697,-7.04,-6.96,1.97,0.13,-0.10,0.02
21,1715180724729,-6.93,-6.79,1.95,0.14,-0.12,0.03
21,1715180724761,-6.97,-6.87,2.00,0.09,-0.16,0.03
21,1715180724793,-7.39,-6.69,3.07,-0.06,-0.14,0.06
21,1715180724825,-8.13,-7.58,4.29,-0.14,-0.34,0.06
21,1715180724857,-9.12,-8.02,5.80,-0.12,-0.65,0.05
21,1715180724889,-10.35,-8.49,7.01,0.11,-0.68,0.14
21,1715180724921,-13.76,-9.67,9.09,0.46,-2.07,0.51
21,1715180724953,-11.20,-11.80,9.74,1.05,-2.14,0.78
21,1715180724985,-15.76,-11.51,9.40,2.31,-2.36,1.28
21,1715180725017,-17.18,-12.65,8.23,3.24,-4.04,1.99
21,1715180725050,-13.95,-13.83,8.26,4.24,-4.37,1.74
21,1715180725082,-15.47,-13.25,7.79,4.37,-4.37,1.99
21,1715180725114,-13.41,-13.14,7.46,4.37,-4.37,2.31
21,1715180725146,-12.53,-10.96,7.04,4.37,-4.37,2.57
21,1715180725178,-10.39,-9.27,4.51,4.37,-4.34,2.65
21,1715180725211,-7.86,-7.69,1.85,4.37,-3.68,3.04
21,1715180725243,-2.85,-5.76,-1.50,4.37,-2.80,3.51
21,1715180725275,1.58,-0.79,-4.75,4.37,-2.34,2.92
21,1715180725307,2.36,-0.88,-5.85,4.13,-2.00,2.12
21,1715180725340,5.86,1.33,-5.98,3.24,-1.47,1.45
21,1715180725371,7.14,2.93,-6.15,2.11,-0.75,1.14
21,1715180725404,8.38,4.19,-5.55,0.98,-0.11,0.52
21,1715180725436,8.44,4.91,-5.13,0.06,1.05,-0.24
21,1715180725469,7.47,4.25,-3.19,-0.95,1.10,-0.84
21,1715180725500,7.52,3.28,-1.67,-1.74,1.29,-1.59
21,1715180725532,4.66,2.30,-1.64,-2.12,2.11,-2.31
21,1715180725565,1.56,1.82,-0.40,-2.86,2.23,-2.67
21,1715180725597,0.95,0.25,1.74,-3.64,2.07,-3.06
21,1715180725629,-1.95,0.07,2.91,-4.17,2.78,-3.58
21,1715180725662,-5.72,-0.73,4.46,-4.37,2.86,-3.68
21,1715180725693,-3.45,-2.95,5.07,-4.37,2.00,-3.70
21,1715180725725,-4.16,-5.57,5.55,-4.37,3.84,-4.15
21,1715180725758,-8.25,-11.38,6.69,-4.37,4.37,-4.37
21,1715180725790,-9.37,-11.31,6.81,-4.37,2.98,-4.37
21,1715180725823,-8.56,-18.27,2.74,-4.37,3.28,-3.82
21,1715180725855,-12.55,-17.51,5.15,-4.03,2.85,-2.21
21,1715180725887,-10.10,-18.35,5.27,-2.86,3.11,-2.00
21,1715180725919,-13.18,-16.09,5.31,-1.80,3.56,-1.29
21,1715180725952,-16.29,-11.50,5.35,-1.48,2.24,-0.93
21,1715180725983,-13.16,-10.56,6.04,-1.27,1.00,-0.43
21,1715180726016,-7.31,-12.61,7.77,-0.32,2.28,-0.29
21,1715180726048,-15.49,-8.00,4.15,2.04,2.25,1.34
21,1715180726080,-11.25,-6.38,3.35,1.22,0.04,2.28
21,1715180726113,-8.72,-7.60,2.11,1.28,-1.00,1.02
21,1715180726145,-5.85,-6.89,0.92,1.29,-0.67,0.53
21,1715180726177,-5.46,-5.80,0.76,1.09,0.46,0.70
21,1715180726209,-6.57,-5.73,0.94,0.74,0.72,0.96
21,1715180726241,-6.43,-5.75,1.11,0.51,0.53,0.45
21,1715180726273,-6.66,-5.69,0.99,0.32,0.44,0.08
21,1715180726305,-8.13,-5.35,0.83,0.00,-0.18,0.09
21,1715180726338,-7.06,-6.23,1.02,-0.13,-0.52,-0.01
21,1715180726370,-6.91,-6.67,1.06,-0.06,-0.28,0.00
21,1715180726402,-6.97,-6.67,0.97,0.05,0.07,0.21
21,1715180726434,-7.89,-6.59,0.95,0.06,-0.14,0.32
22,1715180729480,-9.06,-7.11,3.58,0.08,-0.46,0.11
22,1715180729512,-9.28,-7.37,3.87,0.16,-0.57,0.29
22,1715180729544,-9.46,-8.29,4.53,0.37,-0.40,0.50
22,1715180729577,-10.51,-7.52,4.01,0.73,-0.10,0.83
22,1715180729609,-11.29,-7.43,4.99,0.55,-0.09,1.31
22,1715180729641,-13.80,-7.38,5.88,0.30,-1.16,1.62
22,1715180729673,-13.62,-8.50,5.79,0.76,-1.86,1.73
22,1715180729706,-12.99,-8.16,5.25,1.67,-2.78,1.28
22,1715180729739,-14.31,-8.13,6.00,2.10,-3.21,1.46
22,1715180729770,-13.89,-8.21,5.82,3.20,-3.29,1.99
22,1715180729803,-13.02,-7.67,4.28,3.25,-3.73,2.35
22,1715180729834,-11.19,-7.78,4.95,4.02,-4.37,1.68
22,1715180729866,-12.15,-5.99,2.51,4.37,-4.37,2.22
22,1715180729899,-8.66,-5.17,4.78,4.37,-4.37,2.24
22,1715180729931,-11.34,-7.33,4.28,4.37,-4.37,2.44
22,1715180729963,0.47,-1.44,0.84,4.37,-4.08,2.56
22,1715180729995,-2.56,-0.17,-0.05,4.37,-2.03,2.47
22,1715180730027,-0.45,1.57,-0.03,4.37,-2.38,2.34
22,1715180730059,3.18,3.02,-1.48,3.50,-1.84,1.49
22,1715180730091,4.67,2.96,-1.02,3.39,-0.92,1.73
22,1715180730124,5.37,6.49,-0.27,2.20,-0.92,1.37
22,1715180730156,8.57,4.85,-1.90,1.43,-0.63,0.53
22,1715180730189,8.24,5.78,-1.93,1.00,-0.22,0.15
22,1715180730222,9.43,6.09,-1.51,0.41,0.06,-0.42
22,1715180730254,8.12,6.72,-1.59,-0.20,0.61,-0.95
22,1715180730286,6.15,6.05,-0.51,-0.72,0.75,-1.27
22,1715180730318,6.39,5.68,-0.24,-1.24,0.77,-1.62
22,1715180730351,4.92,4.28,-1.43,-1.72,1.14,-2.19
22,1715180730383,2.27,3.01,0.17,-2.18,1.45,-2.48
22,1715180730415,0.45,2.57,0.88,-2.67,1.72,-2.74
22,1715180730448,-2.22,1.41,0.28,-3.72,1.75,-3.15
22,1715180730479,-2.21,-1.49,1.06,-4.37,1.80,-3.37
22,1715180730512,-2.44,-4.06,2.63,-4.37,2.58,-3.49
22,1715180730544,-6.12,-4.59,3.39,-4.37,2.35,-3.88
22,1715180730576,-6.85,-8.90,1.57,-4.37,2.34,-4.37
22,1715180730608,-2.71,-15.20,3.03,-4.37,3.25,-4.37
22,1715180730640,-8.15,-18.65,1.62,-4.37,3.76,-4.37
22,1715180730673,-9.88,-19.61,2.83,-4.37,3.19,-3.39
22,1715180730705,-10.52,-19.61,5.19,-4.37,3.29,-2.54
22,1715180730737,-13.13,-19.61,6.67,-3.80,3.40,-2.09
22,1715180730769,-15.73,-15.67,6.96,-2.19,2.69,-0.71
22,1715180730802,-14.03,-12.73,7.41,-1.51,1.61,0.21
22,1715180730834,-11.34,-13.28,8.57,-0.31,1.56,0.79
22,1715180730867,-13.71,-9.73,3.74,1.94,1.46,2.00
22,1715180730898,-7.74,-9.96,6.34,1.51,0.46,1.80
22,1715180730930,-9.81,-7.23,2.84,1.18,-0.47,0.98
22,1715180730962,-7.01,-7.04,1.90,0.98,-0.45,0.58
22,1715180730994,-7.64,-6.27,1.46,0.68,-0.50,0.56
22,1715180731026,-7.03,-6.53,1.30,0.47,-0.61,0.61
22,1715180731058,-6.41,-7.26,1.30,0.55,-0.40,0.61
22,1715180731091,-7.45,-6.48,0.71,0.63,-0.35,0.71
22,1715180731123,-7.19,-6.61,0.76,0.54,-0.67,0.75
22,1715180731155,-6.65,-6.82,0.51,0.43,-0.97,0.72
22,1715180731187,-5.73,-6.98,0.41,0.48,-0.58,0.72
22,1715180731219,-5.39,-7.10,0.68,0.47,0.14,0.82
22,1715180731252,-6.41,-7.14,1.12,0.37,0.13,0.75
22,1715180731284,-6.10,-6.98,1.08,0.31,-0.18,0.48
22,1715180731316,-5.36,-6.87,1.30,0.21,-0.16,0.30
22,1715180731349,-4.85,-6.81,1.52,0.17,0.26,0.21
22,1715180731380,-6.01,-6.64,1.81,0.14,0.21,0.07
22,1715180731413,-5.86,-6.55,1.66,0.06,-0.08,-0.15
22,1715180731445,-5.47,-6.74,1.62,0.01,0.06,-0.31
22,1715180731477,-5.32,-6.89,1.68,0.15,0.59,-0.33
22,1715180731509,-6.54,-6.68,1.79,0.18,0.92,-0.32
23,1715180734551,-6.54,-6.96,0.91,-0.16,-0.30,-0.10
23,1715180734583,-6.55,-6.85,0.95,0.03,-0.13,-0.03
23,1715180734615,-6.73,-6.76,0.75,0.07,-0.08,-0.02
23,1715180734647,-6.87,-6.99,0.94,0.09,-0.12,-0.04
23,1715180734679,-6.89,-7.18,1.31,0.14,-0.09,-0.00
23,1715180734711,-6.61,-7.04,1.03,0.25,0.04,0.01
23,1715180734744,-6.84,-6.77,0.68,0.25,0.09,0.03
23,1715180734776,-6.83,-6.76,0.59,0.19,0.04,-0.01
23,1715180734808,-6.83,-6.80,0.64,0.16,0.00,-0.03
23,1715180734840,-6.76,-6.76,0.74,0.18,0.05,-0.04
23,1715180734873,-6.90,-6.68,0.66,0.19,0.05,-0.04
23,1715180734905,-6.97,-6.74,0.58,0.18,0.02,-0.05
23,1715180734937,-7.04,-6.77,0.62,0.17,0.03,-0.04
23,1715180734970,-7.03,-6.79,0.72,0.17,0.04,-0.02
23,1715180735001,-6.96,-6.79,0.68,0.18,0.01,-0.01
23,1715180735033,-7.00,-6.71,0.74,0.15,0.01,-0.02
23,1715180735066,-8.26,-6.26,1.28,-0.01,-0.05,-0.04
23,1715180735098,-8.58,-6.70,2.70,-0.33,-0.52,-0.04
23,1715180735130,-11.00,-6.44,4.11,-0.59,-0.58,0.04
23,1715180735163,-16.20,-7.12,7.69,-0.27,-2.55,0.34
23,1715180735195,-10.72,-10.15,7.93,0.39,-3.53,0.56
23,1715180735227,-15.67,-8.84,8.06,1.48,-2.35,1.23
23,1715180735259,-17.12,-11.53,10.16,2.25,-3.51,2.14
23,1715180735292,-16.91,-12.59,10.01,3.30,-3.53,2.53
23,1715180735324,-19.61,-14.04,9.44,4.37,-4.37,3.23
23,1715180735356,-18.63,-13.80,11.33,4.37,-4.37,3.33
23,1715180735388,-14.61,-15.20,7.38,4.37,-4.37,3.31
23,1715180735420,-14.43,-12.95,5.78,4.37,-4.37,4.17
23,1715180735453,-4.37,-8.02,0.83,4.37,-4.04,4.37
23,1715180735485,-4.98,-6.19,-2.61,4.37,-2.90,4.01
23,1715180735517,-1.50,-5.90,-3.92,4.37,-2.84,3.36
23,1715180735549,2.99,-1.20,-6.81,4.35,-2.16,2.93
23,1715180735581,4.40,-1.01,-7.05,2.67,-1.60,2.26
23,1715180735614,8.65,0.91,-6.98,1.82,-0.97,1.51
23,1715180735646,9.03,2.69,-7.09,0.74,0.32,0.52
23,1715180735678,8.43,2.52,-5.64,-0.43,1.06,-0.52
23,1715180735710,7.53,2.11,-2.88,-1.29,1.20,-1.31
23,1715180735742,6.59,1.41,-1.80,-1.85,1.64,-2.16
23,1715180735775,3.43,0.85,-2.35,-2.39,2.44,-2.97
23,1715180735807,-1.04,-0.39,-0.78,-3.34,2.37,-3.50
23,1715180735839,-0.53,-1.95,0.69,-4.09,3.12,-3.99
23,1715180735871,-2.74,-3.03,0.50,-4.37,3.12,-4.37
23,1715180735903,-4.87,-4.95,2.24,-4.37,3.76,-4.37
23,1715180735935,-8.39,-13.58,5.35,-4.37,4.37,-4.37
23,1715180735967,-12.73,-14.37,2.02,-4.37,4.37,-4.37
23,1715180735999,-13.15,-19.03,-1.32,-4.37,2.73,-4.23
23,1715180736031,-6.96,-19.61,4.86,-4.37,3.56,-2.83
23,1715180736064,-16.70,-19.61,5.83,-1.36,4.37,-2.57
23,1715180736096,-19.61,-16.65,3.31,0.34,3.13,-0.20
23,1715180736129,-14.54,-13.51,4.32,-1.35,1.31,-2.52
23,1715180736160,-14.82,-9.96,5.10,-1.75,1.91,-1.97
23,1715180736193,-13.15,-11.32,6.70,-1.07,1.68,-0.35
23,1715180736224,-11.85,-10.45,5.41,1.61,0.97,1.33
23,1715180736257,-10.19,-8.59,3.23,2.24,-0.40,1.92
23,1715180736289,-8.96,-6.49,2.40,1.39,-1.51,1.37
23,1715180736322,-7.01,-6.93,1.08,1.46,-1.58,0.72
23,1715180736355,-4.59,-6.45,1.81,1.06,-0.31,0.77
23,1715180736386,-6.52,-6.15,1.41,0.83,0.20,0.93
23,1715180736418,-6.33,-6.19,1.19,0.77,0.05,0.67
23,1715180736451,-5.66,-6.53,0.76,0.88,0.30,0.47
23,1715180736483,-8.03,-6.00,0.84,0.56,0.02,0.62
23,1715180736515,-6.76,-6.77,0.43,0.48,-0.39,0.45
23,1715180736547,-6.46,-6.44,0.26,0.38,-0.29,0.44
23,1715180736579,-6.93,-6.79,1.05,0.01,-0.37,0.52
24,1715180739640,-7.48,-6.60,2.28,0.15,0.18,-0.00
24,1715180739672,-7.40,-6.53,2.90,0.01,0.04,-0.02
24,1715180739705,-7.72,-6.81,4.16,-0.13,0.17,-0.00
24,1715180739737,-9.62,-6.91,4.72,-0.17,0.29,0.06
24,1715180739769,-9.85,-7.59,6.31,-0.37,0.07,0.15
24,1715180739801,-10.02,-8.25,6.06,-0.45,0.29,0.43
24,1715180739834,-12.23,-9.02,6.69,0.25,-0.07,0.71
24,1715180739866,-11.82,-9.41,6.22,0.70,-0.73,1.00
24,1715180739899,-14.60,-10.01,6.70,1.53,-0.96,1.43
24,1715180739930,-17.38,-10.65,6.31,2.81,-1.88,2.26
24,1715180739962,-19.61,-11.06,4.63,3.33,-3.15,3.06
24,1715180739999,-16.13,-11.20,2.75,3.41,-4.05,2.62
24,1715180740031,-14.10,-9.66,3.26,3.57,-4.37,1.87
24,1715180740064,-16.69,-9.06,2.77,4.37,-4.37,1.79
24,1715180740095,-12.96,-9.81,-0.72,4.37,-4.37,1.32
24,1715180740129,-4.14,-10.99,0.42,4.37,-4.37,-0.03
24,1715180740160,2.12,-6.49,-4.18,4.37,-3.00,-1.12
24,1715180740193,-3.24,-1.85,-1.53,4.37,-0.49,4.24
24,1715180740225,-0.64,1.44,-2.44,4.37,-1.37,3.71
24,1715180740257,5.06,4.49,-4.71,3.77,-0.88,2.52
24,1715180740289,4.47,2.43,-3.53,2.65,-0.30,1.52
24,1715180740321,6.51,4.60,-2.88,1.84,0.17,0.98
24,1715180740354,7.61,6.32,-3.02,0.77,0.22,0.33
24,1715180740386,8.23,6.29,-2.46,0.10,0.67,-0.24
24,1715180740418,7.53,6.26,-1.03,-0.61,0.80,-0.78
24,1715180740450,7.36,4.91,-1.26,-1.36,0.86,-1.57
24,1715180740482,5.08,3.09,-2.12,-1.92,1.55,-2.35
24,1715180740514,2.24,1.38,-1.78,-2.74,1.61,-2.81
24,1715180740547,2.15,0.10,-0.56,-3.87,1.60,-3.37
24,1715180740579,-0.13,-2.07,-0.31,-4.37,1.96,-4.30
24,1715180740611,-0.49,-4.17,-1.70,-4.37,2.70,-4.37
24,1715180740643,-4.56,-9.23,3.35,-4.37,4.37,-4.37
24,1715180740675,-13.90,-11.46,8.77,-4.37,3.59,-4.37
24,1715180740708,-4.63,-16.14,-2.47,-4.37,1.74,-3.98
24,1715180740740,-15.47,-17.54,2.07,-4.37,4.37,-2.94
24,1715180740772,-19.61,-19.61,5.28,-4.37,2.75,-0.17
24,1715180740804,-14.85,-19.55,10.34,-1.30,0.99,0.43
24,1715180740837,-7.71,-14.03,7.52,1.54,1.83,0.42
24,1715180740869,-11.36,-7.93,3.44,1.51,2.31,0.42
24,1715180740901,-12.95,-7.37,3.97,0.90,0.83,0.62
24,1715180740933,-9.62,-8.22,4.26,1.08,0.47,0.39
24,1715180740965,-9.00,-6.88,3.04,0.98,1.06,-0.14
24,1715180740998,-10.79,-5.76,2.26,0.73,0.91,-0.17
24,1715180741030,-9.52,-5.94,2.07,0.39,0.32,-0.12
24,1715180741062,-7.57,-6.73,2.17,0.44,0.36,-0.08
24,1715180741094,-8.07,-6.11,1.64,0.62,0.49,0.07
24,1715180741126,-8.60,-5.78,1.34,0.48,-0.13,0.19
24,1715180741158,-7.33,-5.97,1.34,0.35,-0.49,0.05
24,1715180741190,-6.46,-6.32,1.05,0.37,-0.06,0.07
24,1715180741222,-7.23,-6.11,0.74,0.35,0.40,0.27
24,1715180741254,-7.83,-5.96,1.15,0.12,0.20,0.27
24,1715180741287,-7.30,-6.58,1.46,-0.01,-0.15,-0.00
24,1715180741319,-6.91,-6.61,1.30,0.06,-0.06,-0.13
24,1715180741352,-6.95,-6.52,1.04,0.14,0.19,-0.03
24,1715180741383,-7.73,-6.15,1.26,0.02,0.01,-0.01
24,1715180741416,-7.06,-6.49,1.60,-0.10,-0.23,-0.13
24,1715180741448,-6.65,-6.85,1.55,-0.01,-0.14,-0.16
24,1715180741480,-6.79,-6.78,1.56,0.12,0.07,-0.06
24,1715180741512,-7.04,-6.62,1.39,0.14,0.14,-0.05
24,1715180741544,-7.40,-6.56,1.53,0.05,-0.07,-0.15
24,1715180741577,-7.04,-6.76,1.61,0.05,-0.15,-0.23
24,1715180741609,-6.94,-6.57,1.34,0.15,-0.06,-0.17
24,1715180741641,-7.05,-6.58,1.31,0.20,0.06,-0.08
24,1715180741674,-7.17,-6.50,1.29,0.20,0.06,-0.08
25,1715180744716,-6.95,-6.61,1.59,0.18,0.08,-0.05
25,1715180744749,-6.98,-6.55,1.57,0.17,0.07,-0.06
25,1715180744781,-7.08,-6.65,1.71,0.13,0.05,-0.07
25,1715180744813,-7.11,-6.56,1.83,0.18,0.05,-0.05
25,1715180744845,-6.98,-6.70,1.79,0.19,-0.02,-0.05
25,1715180744878,-7.04,-6.57,1.51,0.19,0.10,-0.04
25,1715180744910,-7.23,-6.56,1.65,0.15,0.03,-0.02
25,1715180744942,-7.02,-6.59,1.70,0.13,-0.05,-0.06
25,1715180744975,-6.91,-6.57,1.58,0.17,0.03,-0.01
25,1715180745006,-7.00,-6.60,1.65,0.19,0.06,-0.00
25,1715180745038,-7.07,-6.56,1.58,0.15,0.01,-0.00
25,1715180745070,-6.83,-6.68,1.59,0.15,0.02,-0.00
25,1715180745103,-7.02,-6.68,1.74,0.18,0.03,-0.00
25,1715180745135,-7.43,-6.39,1.85,0.14,0.03,-0.01
25,1715180745167,-8.02,-6.53,2.48,-0.02,-0.02,0.05
25,1715180745199,-8.54,-6.76,3.37,-0.12,-0.06,0.11
25,1715180745231,-9.27,-6.45,4.23,-0.24,-0.23,0.14
25,1715180745263,-10.77,-7.78,6.22,-0.53,-0.47,0.22
25,1715180745295,-11.17,-8.98,6.74,-0.39,-0.35,0.32
25,1715180745327,-13.97,-8.83,6.94,-0.18,-0.47,0.92
25,1715180745359,-14.14,-11.71,8.11,0.03,-0.89,1.40
25,1715180745391,-16.82,-11.91,6.44,0.89,-1.19,1.75
25,1715180745424,-19.61,-12.75,5.79,2.76,-2.69,2.40
25,1715180745456,-19.48,-13.99,4.48,3.97,-3.76,2.95
25,1715180745488,-19.61,-13.65,3.54,4.37,-4.37,2.94
25,1715180745520,-19.20,-13.57,-1.77,4.37,-4.37,2.35
25,1715180745552,-12.92,-11.80,-0.96,4.37,-4.37,0.75
25,1715180745584,-5.24,-12.61,-2.26,4.37,-4.37,-0.53
25,1715180745617,1.30,-8.18,-6.60,4.37,-2.43,-0.77
25,1715180745649,-0.68,0.14,-7.40,4.37,0.47,2.60
25,1715180745681,1.89,-1.78,-6.92,4.37,0.41,4.01
25,1715180745713,2.38,2.17,-6.82,4.37,-1.03,3.07
25,1715180745745,7.21,4.52,-6.85,2.40,-0.51,1.77
25,1715180745778,6.82,4.27,-5.61,1.07,-0.04,0.75
25,1715180745811,8.39,4.86,-4.91,0.08,0.15,-0.12
25,1715180745842,6.89,5.06,-4.09,-0.96,0.27,-1.07
25,1715180745875,6.39,3.66,-3.71,-1.88,0.66,-2.08
25,1715180745907,4.14,2.14,-3.61,-2.70,1.34,-2.84
25,1715180745939,1.68,0.11,-3.90,-3.77,1.77,-3.49
25,1715180745971,0.37,-3.06,-2.94,-4.37,2.25,-3.97
25,1715180746003,-3.41,-5.44,-0.82,-4.37,2.24,-4.37
25,1715180746035,-4.71,-7.02,2.95,-4.37,1.98,-4.37
25,1715180746068,-9.01,-11.20,4.75,-4.37,3.05,-4.37
25,1715180746100,-8.02,-14.06,3.21,-4.37,1.12,-4.37
25,1715180746132,-5.01,-19.61,-1.15,-4.37,2.01,-3.63
25,1715180746165,-11.80,-19.61,3.21,-4.37,3.90,-1.37
25,1715180746197,-16.50,-19.61,6.07,-4.37,3.28,0.28
25,1715180746229,-13.43,-19.61,8.58,-0.54,2.49,0.40
25,1715180746261,-10.16,-12.80,3.46,-0.25,3.05,-0.64
25,1715180746293,-17.52,-14.26,10.33,2.13,3.23,0.26
25,1715180746326,-16.01,-7.97,1.28,4.15,2.39,3.31
25,1715180746358,-9.88,-6.45,3.94,2.42,1.96,2.16
25,1715180746390,-10.35,-5.14,1.48,1.37,0.26,0.50
25,1715180746422,-8.72,-4.99,0.98,0.66,-0.03,0.24
25,1715180746454,-6.72,-5.91,0.98,0.53,0.45,0.39
25,1715180746487,-7.33,-5.37,0.81,0.69,0.60,0.49
25,1715180746519,-7.92,-5.41,0.60,0.57,-0.16,0.52
25,1715180746552,-7.12,-5.82,0.22,0.52,-0.54,0.29
25,1715180746583,-6.52,-5.84,-0.04,0.50,-0.30,0.23
25,1715180746616,-6.50,-5.87,-0.11,0.53,0.22,0.41
25,1715180746648,-7.07,-5.80,-0.09,0.47,0.46,0.48
25,1715180746679,-7.94,-5.54,0.18,0.26,0.21,0.40
25,1715180746712,-7.14,-6.01,0.23,0.13,-0.15,0.15
25,1715180746743,-6.79,-5.97,0.49,0.11,-0.12,0.01
26,1715180749793,-7.96,-6.18,1.01,0.13,-0.11,-0.03
26,1715180749825,-8.95,-5.84,1.14,0.12,-0.15,0.01
26,1715180749859,-8.59,-5.66,1.63,0.01,-0.30,0.12
26,1715180749893,-10.06,-5.20,2.02,-0.09,-0.31,0.24
26,1715180749924,-11.82,-5.53,3.38,-0.53,-0.69,0.35
26,1715180749956,-11.62,-6.48,4.25,-0.76,-1.06,0.35
26,1715180749989,-12.46,-6.55,4.62,-0.57,-1.11,0.53
26,1715180750021,-13.78,-7.35,5.21,-0.68,-1.17,1.09
26,1715180750053,-13.45,-8.66,5.22,-0.36,-1.62,1.26
26,1715180750086,-16.43,-9.64,6.70,0.62,-1.69,1.43
26,1715180750118,-17.80,-11.18,4.58,1.17,-2.62,2.21
26,1715180750150,-15.97,-10.42,3.05,3.20,-3.69,1.95
26,1715180750182,-18.36,-10.61,3.35,4.37,-4.37,2.55
26,1715180750215,-16.51,-10.54,1.29,4.37,-4.37,2.85
26,1715180750246,-14.71,-9.80,1.15,4.37,-4.37,2.15
26,1715180750279,-8.20,-9.61,-2.11,4.37,-4.37,0.55
26,1715180750311,-5.31,-9.79,-0.37,4.37,-4.37,-0.77
26,1715180750343,2.56,-7.39,-5.53,4.37,-3.19,-2.17
26,1715180750375,-0.07,4.94,-4.50,4.37,0.43,4.37
26,1715180750407,-0.69,2.09,-4.68,4.37,0.50,3.52
26,1715180750439,2.76,4.82,-3.24,3.75,-1.35,2.78
26,1715180750471,8.34,4.94,-5.64,2.12,-0.64,1.46
26,1715180750504,6.79,5.51,-5.13,0.97,0.31,0.31
26,1715180750536,7.85,6.13,-4.81,-0.04,0.41,-0.47
26,1715180750568,6.04,5.80,-4.63,-1.03,0.48,-1.26
26,1715180750600,5.75,4.75,-2.32,-1.80,0.67,-1.90
26,1715180750632,4.77,2.95,-0.95,-2.39,0.80,-2.63
26,1715180750665,1.74,1.37,-1.18,-2.80,1.48,-3.28
26,1715180750697,-2.54,0.23,-0.47,-3.45,2.05,-3.63
26,1715180750730,-4.63,-1.58,0.38,-4.36,1.35,-3.53
26,1715180750762,-5.08,-3.34,2.76,-4.37,1.34,-3.93
26,1715180750793,-6.16,-6.01,5.99,-4.37,0.99,-4.17
26,1715180750826,-4.74,-8.54,7.35,-4.37,-0.53,-4.37
26,1715180750858,-5.48,-11.59,4.56,-4.37,1.27,-4.37
26,1715180750889,-8.43,-17.84,3.38,-4.37,2.49,-4.28
26,1715180750922,-4.85,-19.61,-2.58,-4.37,2.55,-2.44
26,1715180750954,-5.45,-19.61,4.15,-4.37,4.37,-1.57
26,1715180750986,-19.61,-19.61,9.00,-0.35,3.54,0.42
26,1715180751018,-17.49,-12.35,3.30,1.54,3.03,2.55
26,1715180751050,-10.24,-14.91,11.63,1.23,1.70,0.49
26,1715180751083,-17.78,-6.03,5.40,2.06,1.60,0.76
26,1715180751115,-14.20,-5.71,4.19,1.43,0.54,1.77
26,1715180751147,-9.93,-7.26,3.00,0.92,-0.57,1.46
26,1715180751180,-7.04,-6.74,1.86,0.91,-0.58,0.76
26,1715180751211,-6.47,-5.85,0.68,1.07,0.15,0.48
26,1715180751244,-8.67,-4.63,0.22,0.63,-0.17,0.94
26,1715180751276,-7.15,-6.45,1.07,0.47,-0.55,0.96
26,1715180751308,-6.32,-6.45,0.39,0.58,-0.40,0.69
26,1715180751340,-6.63,-5.87,0.25,0.64,-0.04,0.69
26,1715180751372,-6.86,-5.90,0.17,0.49,0.01,0.78
26,1715180751405,-6.73,-5.97,0.51,0.29,-0.09,0.66
26,1715180751436,-6.56,-6.12,0.99,0.10,-0.07,0.46
26,1715180751468,-6.33,-6.14,1.21,0.05,-0.04,0.31
26,1715180751501,-6.33,-6.09,1.23,0.01,-0.21,0.16
26,1715180751533,-6.17,-6.23,1.37,0.01,-0.18,0.01
26,1715180751565,-6.19,-6.71,1.48,0.04,0.08,-0.08
26,1715180751597,-6.96,-6.20,1.58,0.01,0.23,-0.19
26,1715180751629,-6.97,-6.06,1.56,-0.07,-0.07,-0.30
26,1715180751661,-6.79,-6.30,1.47,-0.05,-0.11,-0.38
26,1715180751694,-6.92,-6.56,1.45,0.06,0.17,-0.37
26,1715180751725,-7.50,-6.28,1.47,0.09,0.32,-0.36
26,1715180751757,-7.84,-6.22,1.36,0.04,0.10,-0.43
26,1715180751789,-7.71,-6.31,1.31,0.05,-0.07,-0.41
26,1715180751821,-7.39,-6.40,1.30,0.14,0.08,-0.29
27,1715180754870,-7.32,-6.46,0.91,0.15,-0.09,-0.03
27,1715180754901,-7.25,-6.44,0.84,0.12,-0.11,-0.01
27,1715180754934,-7.03,-6.53,0.92,0.17,-0.07,0.02
27,1715180754966,-7.10,-6.41,0.75,0.21,-0.01,0.03
27,1715180754998,-7.00,-6.31,0.69,0.18,-0.03,0.02
27,1715180755031,-7.04,-6.41,0.76,0.14,-0.06,-0.01
27,1715180755063,-6.98,-6.38,0.72,0.14,-0.07,-0.02
27,1715180755095,-7.09,-6.47,0.82,0.11,-0.07,-0.03
27,1715180755127,-7.12,-6.49,0.93,0.13,-0.07,-0.03
27,1715180755159,-7.07,-6.46,1.03,0.15,-0.04,-0.02
27,1715180755191,-7.16,-6.52,1.08,0.15,-0.05,-0.02
27,1715180755223,-7.11,-6.57,1.27,0.15,-0.04,-0.02
27,1715180755255,-7.10,-6.64,1.20,0.18,-0.01,-0.02
27,1715180755288,-7.22,-6.47,1.18,0.19,0.00,-0.02
27,1715180755320,-7.17,-6.41,1.16,0.16,-0.00,-0.03
27,1715180755352,-7.24,-6.39,1.38,0.11,0.02,-0.04
27,1715180755385,-7.63,-6.27,1.92,-0.00,0.01,-0.06
27,1715180755417,-8.80,-5.67,2.94,-0.29,-0.09,-0.12
27,1715180755449,-10.48,-7.27,5.57,-0.78,-0.18,-0.12
27,1715180755481,-11.23,-8.36,5.92,-0.49,0.14,-0.08
27,1715180755513,-15.40,-7.81,5.69,-0.36,0.02,0.57
27,1715180755545,-16.16,-9.96,5.73,-0.57,-0.53,1.21
27,1715180755578,-18.60,-11.19,4.73,0.65,-1.56,1.85
27,1715180755609,-19.61,-11.87,3.23,2.69,-2.85,3.07
27,1715180755642,-19.61,-12.33,2.23,3.70,-3.74,4.17
27,1715180755674,-17.86,-11.77,0.46,4.37,-4.37,4.24
27,1715180755707,-16.22,-10.89,-1.52,4.37,-4.37,3.84
27,1715180755738,-12.12,-9.28,-0.37,4.37,-4.37,3.62
27,1715180755770,-13.18,-8.29,0.29,4.37,-4.37,2.98
27,1715180755802,-3.41,-8.50,-2.22,4.37,-4.37,2.48
27,1715180755835,1.71,-3.06,-2.46,4.37,-3.63,2.75
27,1715180755867,-2.54,-0.41,-1.05,4.37,-2.57,3.17
27,1715180755899,1.78,-0.93,-3.40,4.11,-3.46,2.33
27,1715180755932,4.73,4.74,-1.92,3.02,-1.53,1.42
27,1715180755964,3.53,2.51,-0.47,2.81,-1.33,1.74
27,1715180755995,8.07,6.71,-1.18,2.21,-0.67,0.99
27,1715180756028,8.34,5.84,-2.74,1.16,-0.05,0.28
27,1715180756060,7.37,5.78,-0.85,0.57,0.00,-0.18
27,1715180756092,8.29,6.07,-1.47,0.13,0.33,-0.73
27,1715180756125,7.02,6.09,-2.83,-0.28,1.03,-1.25
27,1715180756156,5.91,4.77,-2.32,-1.09,1.15,-1.74
27,1715180756188,5.69,2.86,-1.70,-1.93,1.25,-2.34
27,1715180756221,3.15,1.86,-1.88,-2.74,1.82,-3.06
27,1715180756253,-0.02,1.42,-2.50,-3.93,2.44,-3.71
27,1715180756285,-0.70,-1.88,-3.54,-4.37,2.55,-4.23
27,1715180756317,-4.57,-6.05,-0.19,-4.37,3.99,-4.37
27,1715180756349,-13.95,-9.56,7.69,-4.37,4.37,-4.37
27,1715180756382,-5.41,-11.70,1.50,-4.37,2.17,-4.37
27,1715180756413,-6.26,-18.92,0.67,-4.37,3.55,-4.12
27,1715180756446,-10.56,-19.61,2.33,-4.37,3.89,-1.96
27,1715180756477,-7.98,-19.61,5.56,-4.37,4.05,-1.84
27,1715180756510,-12.18,-19.61,2.79,0.28,4.27,-1.58
27,1715180756543,-18.14,-13.61,0.36,0.95,4.37,0.65
27,1715180756575,-17.64,-11.68,1.77,-2.34,3.34,1.13
27,1715180756606,-16.56,-8.29,3.85,-1.36,1.97,-0.43
27,1715180756639,-14.32,-11.93,8.64,0.75,1.38,-0.52
27,1715180756671,-16.03,-6.56,2.04,3.35,0.54,1.90
27,1715180756703,-10.19,-5.47,0.80,2.48,-0.38,2.14
27,1715180756736,-9.92,-4.75,0.83,1.32,-0.81,1.50
27,1715180756768,-7.92,-5.79,0.30,0.92,-0.58,1.18
27,1715180756799,-6.63,-5.62,-0.15,0.98,0.13,0.87
27,1715180756832,-7.27,-5.17,0.25,0.75,0.44,1.02
27,1715180756864,-6.86,-5.59,0.20,0.69,0.27,0.94
27,1715180756895,-6.85,-5.23,-0.06,0.63,0.08,0.68
28,1715180759956,-7.61,-5.75,0.47,0.20,-0.00,-0.02
28,1715180759989,-7.60,-5.84,0.36,0.21,0.01,-0.02
28,1715180760021,-7.73,-5.73,0.42,0.19,-0.00,-0.03
28,1715180760053,-7.78,-5.64,0.55,0.17,-0.02,-0.03
28,1715180760085,-7.67,-5.71,0.68,0.17,-0.01,-0.04
28,1715180760117,-7.67,-5.77,0.62,0.20,-0.00,-0.03
28,1715180760149,-7.78,-5.68,0.50,0.19,0.01,-0.02
28,1715180760181,-7.79,-5.66,0.63,0.17,-0.02,-0.04
28,1715180760214,-7.67,-5.72,0.55,0.16,-0.02,-0.04
28,1715180760246,-7.69,-5.73,0.61,0.15,-0.04,-0.04
28,1715180760278,-7.67,-5.81,0.57,0.15,-0.03,-0.04
28,1715180760311,-7.64,-5.86,0.61,0.17,-0.01,-0.05
28,1715180760343,-7.75,-5.73,0.60,0.17,-0.01,-0.04
28,1715180760375,-7.76,-5.75,0.54,0.15,-0.02,-0.04
28,1715180760408,-7.72,-5.79,0.57,0.14,-0.04,-0.04
28,1715180760440,-7.64,-5.78,0.58,0.14,-0.04,-0.04
28,1715180760472,-7.66,-5.84,0.53,0.12,-0.04,-0.05
28,1715180760505,-7.93,-5.69,0.75,0.06,-0.05,-0.07
28,1715180760537,-8.20,-5.41,1.19,-0.10,-0.11,-0.10
28,1715180760569,-9.05,-5.64,1.91,-0.30,-0.26,-0.12
28,1715180760601,-9.59,-5.55,2.62,-0.49,-0.40,-0.10
28,1715180760633,-10.79,-5.99,3.85,-0.60,-0.42,-0.02
28,1715180760665,-11.64,-6.85,4.36,-0.44,-0.64,0.12
28,1715180760698,-13.29,-6.50,4.30,0.09,-1.11,0.43
28,1715180760730,-13.90,-6.82,4.49,0.30,-1.66,0.91
28,1715180760762,-16.13,-7.81,5.52,0.70,-2.48,1.47
28,1715180760795,-13.32,-8.62,4.02,1.71,-3.14,1.65
28,1715180760827,-15.30,-7.29,4.22,2.30,-3.48,2.24
28,1715180760859,-14.07,-7.62,3.74,2.62,-4.01,2.52
28,1715180760891,-12.50,-6.79,4.66,2.84,-4.33,2.33
28,1715180760923,-11.94,-7.03,5.13,3.25,-4.35,2.48
28,1715180760956,-10.31,-5.87,4.83,3.81,-4.37,2.52
28,1715180760988,-7.72,-3.92,4.69,3.84,-4.37,2.19
28,1715180761020,-8.64,-3.81,5.11,4.20,-4.37,2.36
28,1715180761052,-5.52,-1.60,4.20,4.23,-4.01,2.55
28,1715180761085,-2.77,-0.34,3.83,3.83,-3.15,2.36
28,1715180761116,-1.70,0.39,2.95,3.81,-2.65,2.19
28,1715180761148,0.27,1.65,2.33,3.33,-2.42,1.87
28,1715180761180,2.44,3.75,2.25,3.09,-1.59,1.23
28,1715180761213,3.50,4.20,2.83,2.27,-1.68,1.21
28,1715180761245,5.38,4.49,1.81,1.94,-1.36,0.83
28,1715180761277,5.26,5.80,2.55,1.57,-0.79,0.63
28,1715180761310,4.71,6.58,3.45,1.36,-0.76,0.50
28,1715180761341,6.00,7.15,2.25,1.07,-0.50,0.13
28,1715180761374,4.76,7.68,1.93,0.83,0.06,-0.02
28,1715180761405,4.27,7.86,2.76,0.32,-0.32,-0.03
28,1715180761438,6.03,7.52,1.57,0.20,0.08,-0.20
28,1715180761470,4.55,7.70,1.18,-0.06,0.65,-0.35
28,1715180761502,3.98,7.11,2.49,-0.68,0.29,-0.52
28,1715180761534,5.74,5.70,2.23,-0.73,0.66,-0.73
28,1715180761566,4.15,5.43,1.07,-0.90,1.18,-1.14
28,1715180761599,2.25,4.97,1.66,-1.53,1.17,-1.49
28,1715180761631,2.41,3.65,1.59,-2.23,1.20,-1.82
28,1715180761663,1.91,3.11,1.85,-2.18,2.10,-1.94
28,1715180761695,-3.01,3.32,5.18,-3.23,1.84,-2.23
28,1715180761727,-0.88,0.66,6.40,-3.45,1.55,-2.40
28,1715180761759,-0.94,-1.10,5.52,-2.51,2.52,-2.07
28,1715180761792,-4.84,1.26,5.33,-2.58,3.53,-2.32
28,1715180761824,-6.03,-0.44,5.41,-4.26,2.09,-2.95
28,1715180761856,-7.14,-4.35,7.72,-4.37,1.48,-2.81
28,1715180761888,-6.17,-6.28,9.45,-4.20,2.11,-1.93
28,1715180761920,-7.93,-7.07,9.57,-4.16,2.77,-2.40
28,1715180761952,-10.03,-9.67,7.78,-4.32,2.95,-3.39
28,1715180761984,-9.69,-11.59,10.14,-3.85,1.85,-2.98
29,1715180765035,-6.87,-6.67,1.89,0.24,0.06,0.01
29,1715180765067,-6.87,-6.75,1.85,0.24,0.07,0.01
29,1715180765100,-6.84,-6.71,1.86,0.25,0.07,0.01
29,1715180765132,-6.94,-6.63,1.85,0.23,0.05,0.00
29,1715180765164,-6.84,-6.69,1.85,0.21,-0.00,-0.01
29,1715180765197,-6.86,-6.69,1.79,0.24,0.06,0.01
29,1715180765229,-7.07,-6.65,1.72,0.16,-0.12,-0.02
29,1715180765261,-6.76,-6.68,1.82,0.21,0.01,-0.01
29,1715180765293,-6.70,-6.67,1.96,0.24,0.06,0.01
29,1715180765325,-6.70,-6.74,1.86,0.28,0.14,-0.00
29,1715180765358,-7.23,-6.61,1.79,0.21,0.04,0.00
29,1715180765390,-6.85,-6.69,1.92,0.18,-0.01,-0.04
29,1715180765422,-6.81,-6.66,1.91,0.20,0.05,0.00
29,1715180765454,-6.65,-6.76,1.88,0.22,0.08,-0.03
29,1715180765487,-6.91,-6.65,1.79,0.24,0.12,-0.00
29,1715180765520,-6.99,-6.68,1.85,0.23,0.10,-0.02
29,1715180765551,-6.90,-6.68,1.75,0.22,0.08,-0.01
29,1715180765583,-6.92,-6.63,1.76,0.22,0.06,-0.01
29,1715180765615,-6.89,-6.65,1.80,0.21,0.05,-0.01
29,1715180765647,-6.90,-6.59,1.76,0.21,0.05,-0.02
29,1715180765679,-6.90,-6.64,1.80,0.22,0.05,-0.02
29,1715180765711,-6.95,-6.69,1.80,0.22,0.04,-0.02
29,1715180765744,-7.02,-6.63,1.70,0.20,0.01,-0.02
29,1715180765776,-6.92,-6.66,1.73,0.20,0.01,-0.02
29,1715180765808,-6.87,-6.65,1.81,0.21,0.03,-0.02
29,1715180765840,-6.87,-6.61,1.78,0.21,0.04,-0.03
29,1715180765872,-6.93,-6.65,1.73,0.19,0.00,-0.02
29,1715180765904,-6.84,-6.70,1.81,0.21,0.02,-0.03
29,1715180765937,-6.89,-6.67,1.70,0.21,0.04,-0.02
29,1715180765969,-6.90,-6.62,1.76,0.21,0.03,-0.02
29,1715180766001,-6.92,-6.62,1.80,0.19,0.02,-0.02
29,1715180766033,-6.83,-6.67,1.75,0.19,0.00,-0.03
29,1715180766065,-6.92,-6.62,1.81,0.19,0.03,-0.02
29,1715180766098,-7.06,-6.62,1.66,0.16,-0.03,-0.02
29,1715180766129,-6.90,-6.72,1.81,0.15,-0.05,-0.02
29,1715180766162,-6.77,-6.69,1.81,0.17,-0.02,-0.02
29,1715180766194,-6.73,-6.73,1.79,0.19,0.01,-0.02
29,1715180766226,-6.89,-6.68,1.73,0.20,0.04,-0.02
29,1715180766258,-6.95,-6.64,1.72,0.20,0.03,-0.02
29,1715180766290,-6.94,-6.63,1.84,0.18,0.01,-0.02
29,1715180766323,-6.81,-6.72,1.73,0.19,0.02,-0.02
29,1715180766355,-6.83,-6.79,1.74,0.19,0.04,-0.03
29,1715180766387,-6.82,-6.70,1.91,0.19,0.05,-0.03
29,1715180766420,-6.61,-6.83,1.88,0.24,0.11,-0.03
29,1715180766452,-6.79,-6.68,1.63,0.26,0.16,-0.03
29,1715180766484,-7.18,-6.55,1.63,0.15,0.01,-0.03
29,1715180766517,-7.14,-6.75,1.83,0.11,-0.08,-0.04
29,1715180766548,-6.81,-6.85,1.81,0.15,-0.01,-0.03
29,1715180766580,-6.68,-6.74,1.77,0.17,0.04,-0.04
29,1715180766613,-6.82,-6.70,1.63,0.17,0.06,-0.04
29,1715180766644,-6.97,-6.69,1.69,0.15,0.01,-0.04
29,1715180766677,-6.95,-6.68,1.76,0.14,-0.03,-0.04
29,1715180766710,-6.87,-6.77,1.67,0.13,-0.02,-0.02
29,1715180766741,-6.83,-6.69,1.77,0.13,-0.02,-0.03
29,1715180766773,-7.01,-6.71,1.78,0.11,-0.04,-0.03
29,1715180766806,-6.93,-6.77,2.01,0.09,-0.04,-0.00
29,1715180766838,-7.30,-6.61,2.26,0.03,0.02,0.04
29,1715180766870,-7.88,-6.74,2.87,-0.12,0.02,0.07
29,1715180766902,-9.37,-6.60,4.13,-0.28,-0.13,0.15
29,1715180766935,-8.92,-7.41,4.99,-0.28,-0.51,0.11
29,1715180766967,-10.58,-7.72,5.87,-0.12,-0.44,0.25
29,1715180766999,-11.82,-7.70,7.22,0.20,-0.88,0.72
29,1715180767031,-13.97,-8.82,8.10,0.58,-1.19,1.52
29,1715180767063,-14.14,-9.95,7.68,1.54,-2.43,1.89
30,1715180770121,-7.10,-6.42,1.47,0.22,0.04,-0.01
30,1715180770153,-7.09,-6.39,1.64,0.22,0.03,-0.01
30,1715180770185,-7.13,-6.49,1.51,0.22,0.03,-0.01
30,1715180770218,-7.24,-6.43,1.64,0.22,0.04,-0.01
30,1715180770249,-7.13,-6.46,1.67,0.20,0.02,-0.01
30,1715180770281,-7.08,-6.44,1.65,0.20,0.00,-0.02
30,1715180770314,-7.04,-6.43,1.66,0.19,0.02,-0.02
30,1715180770345,-7.48,-6.42,1.79,0.16,0.04,-0.02
30,1715180770377,-7.58,-6.53,1.87,0.08,-0.04,-0.01
30,1715180770410,-7.67,-6.70,2.94,-0.02,-0.08,0.03
30,1715180770442,-7.79,-6.95,3.36,0.22,0.02,0.13
30,1715180770474,-7.85,-6.97,3.26,0.57,-0.14,0.26
30,1715180770506,-7.51,-6.88,2.55,0.74,-0.12,0.24
30,1715180770538,-10.45,-6.25,6.75,0.68,-0.71,0.35
30,1715180770571,-12.55,-8.41,8.62,1.11,-2.59,0.11
30,1715180770603,-13.45,-8.53,8.92,1.97,-2.21,0.51
30,1715180770635,-18.68,-10.71,13.90,2.69,-2.29,1.90
30,1715180770667,-16.82,-11.19,12.02,4.11,-4.37,2.27
30,1715180770699,-13.35,-10.31,9.42,4.37,-3.80,2.30
30,1715180770732,-13.92,-9.48,10.21,4.37,-3.40,3.27
30,1715180770763,-9.41,-8.35,5.02,4.37,-4.37,3.42
30,1715180770796,-6.38,-5.01,5.69,4.37,-3.12,2.90
30,1715180770828,-8.57,-6.80,4.44,4.37,-3.68,2.64
30,1715180770860,-1.92,-0.47,0.64,4.37,-2.49,2.43
30,1715180770892,-2.42,-0.43,1.88,3.67,-2.78,2.05
30,1715180770924,-0.50,1.11,0.48,3.44,-2.28,1.71
30,1715180770956,1.89,3.26,-1.76,2.86,-1.46,1.43
30,1715180770988,2.53,3.60,-1.80,2.04,-1.22,1.33
30,1715180771021,4.35,3.84,-2.29,1.19,-0.70,0.74
30,1715180771052,4.62,3.59,-2.87,0.64,0.34,0.14
30,1715180771084,4.69,4.03,-3.09,-0.23,0.96,-0.45
30,1715180771117,4.84,2.82,-2.92,-1.31,1.23,-1.22
30,1715180771149,3.82,1.61,-3.59,-1.96,2.05,-2.02
30,1715180771181,1.91,0.97,-2.24,-2.75,2.98,-2.59
30,1715180771213,1.87,-1.02,-0.33,-4.37,2.91,-3.41
30,1715180771245,-2.38,-3.60,0.49,-4.37,3.36,-4.30
30,1715180771277,-4.25,-5.39,3.35,-4.37,2.68,-4.37
30,1715180771310,-2.66,-11.54,3.79,-4.37,4.27,-4.37
30,1715180771342,-10.29,-12.75,1.84,-4.37,4.37,-4.37
30,1715180771374,-12.22,-19.61,1.75,-4.37,3.54,-4.37
30,1715180771406,-10.38,-19.61,3.64,-4.37,2.87,-3.62
30,1715180771439,-12.96,-19.61,4.80,-3.65,3.82,-3.10
30,1715180771471,-19.31,-18.29,5.12,-2.44,3.46,-1.15
30,1715180771503,-17.79,-11.74,5.71,-1.88,2.43,-0.88
30,1715180771535,-11.12,-17.15,16.02,1.71,3.49,-0.78
30,1715180771568,-18.55,-5.79,8.98,2.19,2.22,2.27
30,1715180771599,-11.21,-8.09,5.34,1.70,0.58,2.19
30,1715180771631,-10.43,-6.88,2.71,1.33,-0.70,1.51
30,1715180771663,-6.49,-5.97,0.99,0.95,-0.79,0.71
30,1715180771695,-6.25,-5.27,0.05,0.71,-0.36,0.47
30,1715180771727,-6.76,-5.28,1.01,0.31,-0.36,0.69
30,1715180771760,-6.53,-6.29,1.19,0.27,-0.47,0.51
30,1715180771791,-6.20,-6.35,0.77,0.40,-0.37,0.34
30,1715180771824,-7.08,-5.93,0.66,0.42,-0.09,0.39
30,1715180771856,-7.29,-6.08,0.43,0.22,-0.36,0.50
30,1715180771889,-6.70,-6.34,0.55,0.12,-0.47,0.40
30,1715180771920,-6.31,-6.49,0.82,0.12,-0.21,0.36
30,1715180771953,-6.23,-6.49,0.82,0.17,0.07,0.38
30,1715180771985,-6.59,-6.31,1.04,0.11,0.05,0.29
30,1715180772017,-6.70,-6.17,1.41,-0.10,-0.16,0.09
30,1715180772049,-6.08,-6.59,1.53,-0.18,-0.26,-0.08
30,1715180772081,-5.92,-6.80,1.66,-0.07,0.16,-0.14
30,1715180772113,-6.31,-6.69,2.00,-0.01,0.48,-0.14
30,1715180772145,-7.29,-6.43,1.94,-0.09,0.18,-0.25
31,1715180775188,-5.19,-6.67,1.48,0.59,-0.16,0.56
31,1715180775220,-6.18,-6.22,1.16,0.53,0.58,0.72
31,1715180775252,-6.62,-6.32,1.12,0.47,0.24,0.68
31,1715180775284,-7.49,-5.91,0.81,0.22,-0.50,0.41
31,1715180775316,-6.33,-6.69,0.93,0.25,-0.52,0.31
31,1715180775348,-6.06,-6.79,0.60,0.59,0.31,0.47
31,1715180775380,-7.75,-5.93,0.43,0.47,0.38,0.64
31,1715180775412,-7.17,-6.30,0.55,0.27,0.06,0.53
31,1715180775445,-6.75,-6.47,0.48,0.17,-0.02,0.40
31,1715180775477,-6.95,-6.37,1.02,0.02,0.01,0.43
31,1715180775510,-6.46,-6.67,1.32,-0.00,-0.14,0.33
31,1715180775542,-6.56,-6.78,1.48,-0.00,-0.31,0.21
31,1715180775574,-5.78,-6.75,1.44,0.01,-0.33,0.06
31,1715180775606,-6.16,-6.77,1.64,0.10,-0.03,0.01
31,1715180775638,-6.35,-6.92,1.96,0.27,0.15,0.00
31,1715180775670,-6.85,-6.56,1.73,0.42,0.42,0.01
31,1715180775702,-7.55,-6.35,1.86,0.33,0.34,-0.01
31,1715180775734,-7.54,-6.31,1.67,0.30,0.29,-0.05
31,1715180775766,-7.69,-6.14,1.48,0.30,0.27,-0.03
31,1715180775798,-7.72,-5.98,1.30,0.32,0.32,0.00
31,1715180775830,-7.78,-5.87,1.19,0.29,0.26,0.01
31,1715180775862,-8.48,-5.54,1.09,-0.00,-0.28,-0.05
31,1715180775895,-7.32,-6.02,1.06,-0.05,-0.37,-0.15
31,1715180775927,-7.64,-6.06,1.41,0.06,-0.09,-0.03
31,1715180775959,-7.32,-6.20,1.43,0.11,-0.11,-0.05
31,1715180775991,-7.70,-5.99,1.17,0.06,-0.18,-0.07
31,1715180776023,-7.49,-6.10,1.19,-0.09,-0.45,-0.09
31,1715180776055,-7.26,-6.42,1.42,-0.08,-0.42,-0.10
31,1715180776087,-6.96,-6.45,1.47,0.02,-0.25,-0.06
31,1715180776119,-6.97,-6.38,1.32,0.08,-0.11,-0.04
31,1715180776151,-7.60,-6.30,1.26,-0.06,-0.43,-0.09
31,1715180776183,-7.21,-6.44,1.44,-0.05,-0.41,-0.10
31,1715180776216,-7.03,-6.50,1.61,0.09,-0.18,-0.02
31,1715180776248,-6.76,-6.56,1.67,0.20,-0.03,-0.00
31,1715180776281,-6.90,-6.40,1.71,0.27,0.10,-0.02
31,1715180776312,-7.10,-6.35,1.78,0.31,0.11,-0.03
31,1715180776345,-7.36,-6.23,1.87,0.30,0.14,-0.04
31,1715180776376,-7.66,-5.96,1.63,0.18,-0.07,-0.04
31,1715180776408,-7.47,-6.13,1.69,0.09,-0.16,-0.07
31,1715180776441,-7.26,-6.29,1.66,0.13,-0.11,-0.03
31,1715180776473,-7.09,-6.28,1.73,0.20,0.01,-0.01
31,1715180776505,-7.10,-6.25,1.66,0.22,0.04,-0.01
31,1715180776537,-7.06,-6.32,1.48,0.21,0.01,-0.01
31,1715180776569,-7.26,-6.47,1.45,0.20,-0.01,-0.03
31,1715180776601,-7.17,-6.41,1.58,0.22,0.03,0.00
31,1715180776633,-7.21,-6.19,1.56,0.24,0.06,0.02
31,1715180776665,-7.25,-6.17,1.59,0.22,0.05,0.04
31,1715180776698,-7.22,-6.19,1.68,0.24,0.10,0.06
31,1715180776729,-7.47,-6.27,1.62,0.25,0.12,0.06
31,1715180776763,-7.75,-6.20,1.80,0.23,0.03,0.05
31,1715180776799,-7.43,-6.13,1.76,0.20,-0.04,0.01
31,1715180776830,-7.29,-6.24,1.62,0.17,-0.04,-0.00
31,1715180776863,-6.99,-6.29,1.61,0.14,-0.03,-0.04
31,1715180776895,-7.12,-6.24,1.63,0.13,-0.02,-0.07
31,1715180776927,-7.18,-6.36,1.68,0.15,0.01,-0.06
31,1715180776959,-7.26,-6.35,1.70,0.16,0.02,-0.06
31,1715180776991,-7.26,-6.35,1.67,0.16,0.02,-0.06
31,1715180777024,-7.23,-6.36,1.48,0.17,0.03,-0.05
31,1715180777056,-7.22,-6.34,1.61,0.19,0.05,-0.04
31,1715180777088,-7.14,-6.39,1.52,0.22,0.09,-0.04
31,1715180777120,-7.11,-6.26,1.43,0.24,0.14,-0.03
31,1715180777152,-7.20,-6.28,1.57,0.26,0.18,-0.02
31,1715180777185,-7.41,-6.31,1.59,0.24,0.18,-0.02
31,1715180777217,-7.40,-6.38,1.57,0.19,0.07,-0.05
32,1715180780275,-7.17,-6.29,1.28,0.17,-0.00,-0.03
32,1715180780307,-7.15,-6.34,1.36,0.17,-0.02,-0.03
32,1715180780340,-7.21,-6.39,1.34,0.18,-0.00,-0.03
32,1715180780371,-7.35,-6.35,1.40,0.16,-0.04,-0.03
32,1715180780404,-7.19,-6.49,1.47,0.14,-0.06,-0.04
32,1715180780436,-7.19,-6.40,1.47,0.13,-0.05,-0.03
32,1715180780468,-7.25,-6.45,1.80,0.05,-0.08,-0.06
32,1715180780501,-7.30,-6.47,2.23,-0.01,-0.09,-0.07
32,1715180780533,-7.83,-6.60,2.71,-0.04,0.09,-0.04
32,1715180780565,-8.63,-6.60,3.31,-0.06,0.07,-0.01
32,1715180780598,-8.83,-7.02,5.12,-0.07,-0.33,0.01
32,1715180780630,-8.21,-8.20,5.19,0.31,-0.06,0.04
32,1715180780662,-10.39,-7.17,4.57,0.93,0.05,0.38
32,1715180780695,-11.60,-6.82,5.20,0.84,-0.27,0.66
32,1715180780727,-12.16,-7.54,5.01,0.79,-0.61,0.83
32,1715180780759,-13.72,-7.42,4.92,0.93,-0.76,1.43
32,1715180780791,-16.44,-7.27,4.85,1.44,-1.67,2.05
32,1715180780823,-15.55,-8.07,4.83,1.54,-2.81,2.03
32,1715180780855,-15.65,-9.05,4.63,1.80,-3.40,2.04
32,1715180780887,-11.56,-9.05,4.06,2.69,-3.53,1.96
32,1715180780920,-14.47,-7.60,4.63,3.53,-3.58,2.30
32,1715180780951,-12.79,-7.68,3.22,3.65,-4.37,2.73
32,1715180780984,-10.52,-6.10,4.22,3.94,-4.37,1.92
32,1715180781016,-11.41,-7.45,4.87,4.37,-4.37,2.03
32,1715180781048,-0.83,-4.70,3.28,4.37,-4.37,1.44
32,1715180781080,-2.37,-2.60,4.05,4.37,-2.83,2.31
32,1715180781112,-2.90,-1.26,1.88,4.37,-3.68,2.46
32,1715180781145,0.96,0.19,-0.12,4.37,-2.16,1.72
32,1715180781177,2.72,3.76,0.30,4.31,-2.00,1.63
32,1715180781209,4.07,3.62,-1.18,3.32,-1.68,1.67
32,1715180781241,6.00,3.95,-2.13,2.75,-1.22,1.26
32,1715180781273,7.77,5.25,-2.52,1.94,-0.82,0.77
32,1715180781305,8.97,5.35,-2.97,1.14,-0.49,0.18
32,1715180781337,9.02,5.62,-2.78,0.52,0.09,-0.27
32,1715180781369,6.96,6.16,-2.74,-0.16,0.43,-0.73
32,1715180781401,6.34,6.34,-2.11,-0.85,0.80,-1.09
32,1715180781433,6.29,5.19,-1.12,-1.29,0.85,-1.36
32,1715180781466,5.42,4.74,-1.18,-1.79,1.31,-1.95
32,1715180781498,2.85,4.42,-0.84,-2.30,1.74,-2.34
32,1715180781530,1.03,2.89,1.19,-2.87,1.53,-2.46
32,1715180781562,1.07,2.00,1.16,-3.21,1.99,-2.73
32,1715180781593,-2.39,0.78,2.22,-3.56,2.71,-3.12
32,1715180781626,-4.70,-0.67,5.44,-3.71,2.49,-2.94
32,1715180781658,-4.32,-1.47,6.57,-3.99,2.09,-2.98
32,1715180781690,-14.10,-3.67,12.30,-4.36,2.06,-3.18
32,1715180781722,-13.43,-4.45,12.99,-3.00,2.18,-1.91
32,1715180781754,-11.00,-1.76,11.53,-2.74,2.40,-1.51
32,1715180781786,-8.21,-1.36,11.12,-2.97,2.59,-1.75
32,1715180781819,-5.69,-2.78,8.68,-3.68,1.29,-2.37
32,1715180781851,-3.23,-4.82,7.29,-4.13,2.01,-3.01
32,1715180781883,-4.21,-6.73,6.91,-4.37,4.19,-3.61
32,1715180781915,-11.00,-7.89,5.99,-4.36,3.59,-3.09
32,1715180781947,-10.07,-12.79,4.94,-3.42,2.45,-2.14
32,1715180781980,-6.62,-13.78,5.31,-2.24,3.61,-1.47
32,1715180782012,-11.67,-11.86,3.57,-0.78,4.34,-1.15
32,1715180782044,-14.52,-10.35,2.69,0.36,3.51,0.05
32,1715180782076,-14.51,-8.97,5.83,0.69,2.47,0.23
32,1715180782109,-14.06,-6.62,3.77,2.52,3.00,0.87
32,1715180782141,-11.96,-5.15,0.76,1.77,0.97,1.46
32,1715180782173,-9.12,-5.20,-0.26,0.80,0.04,0.61
32,1715180782227,-7.80,-5.70,-0.42,0.46,0.04,0.41
32,1715180782260,-7.87,-5.17,-0.35,0.31,0.08,0.56
32,1715180782292,-7.76,-5.51,0.38,-0.07,-0.27,0.47
32,1715180782324,-6.81,-5.94,0.09,-0.03,-0.48,0.25
33,1715180785371,-7.28,-6.03,1.13,0.14,0.06,-0.05
33,1715180785403,-7.79,-6.07,1.29,0.04,-0.01,-0.04
33,1715180785436,-7.62,-6.31,1.56,-0.05,-0.17,-0.06
33,1715180785468,-7.38,-6.28,1.78,-0.12,-0.19,-0.06
33,1715180785500,-7.33,-6.66,1.95,-0.13,-0.08,-0.06
33,1715180785532,-7.38,-6.58,2.12,-0.12,0.03,-0.07
33,1715180785566,-7.49,-6.58,2.14,-0.09,0.00,-0.09
33,1715180785598,-8.46,-6.51,1.85,-0.00,-0.01,-0.06
33,1715180785629,-8.82,-6.51,1.66,-0.07,-0.29,0.02
33,1715180785662,-8.74,-6.36,1.87,-0.22,-0.60,0.08
33,1715180785694,-8.49,-6.67,2.04,-0.35,-0.85,0.08
33,1715180785726,-8.67,-6.56,2.48,-0.51,-0.99,0.11
33,1715180785758,-8.49,-7.47,3.40,-0.58,-0.98,0.12
33,1715180785790,-8.12,-7.58,3.53,-0.30,-0.72,0.16
33,1715180785823,-9.33,-7.06,3.41,-0.09,-0.50,0.30
33,1715180785854,-9.94,-7.70,3.63,-0.07,-0.51,0.64
33,1715180785887,-9.97,-7.20,3.48,-0.08,-0.44,0.73
33,1715180785919,-10.85,-7.31,2.89,0.01,-0.54,0.74
33,1715180785950,-10.93,-6.70,2.38,0.13,-0.73,0.70
33,1715180785983,-11.82,-6.49,2.59,0.03,-1.05,0.73
33,1715180786015,-10.57,-7.00,2.68,0.26,-1.15,0.70
33,1715180786047,-9.95,-6.48,2.72,0.63,-1.23,0.73
33,1715180786079,-11.25,-6.29,4.09,1.07,-1.34,1.01
33,1715180786112,-11.36,-7.29,4.13,1.72,-1.78,1.23
33,1715180786144,-12.54,-7.63,3.65,2.39,-2.51,1.42
33,1715180786176,-10.22,-9.34,0.36,3.08,-3.62,1.31
33,1715180786208,-12.39,-8.36,1.55,4.37,-4.37,1.11
33,1715180786240,-10.31,-11.05,0.82,4.37,-4.37,1.07
33,1715180786272,-7.02,-6.00,1.00,4.37,-4.37,1.69
33,1715180786305,-5.47,-5.50,1.81,4.37,-4.37,0.69
33,1715180786339,2.90,0.11,1.13,4.37,-3.34,0.46
33,1715180786371,-1.62,0.43,0.64,4.37,-1.36,0.79
33,1715180786404,2.25,5.58,-0.09,4.37,-1.09,0.55
33,1715180786436,3.33,7.06,-1.06,2.68,-0.94,0.15
33,1715180786468,3.78,6.59,-1.01,1.96,-0.25,0.05
33,1715180786500,4.38,8.15,-1.01,0.91,0.23,0.10
33,1715180786532,4.93,7.17,-0.23,-0.25,0.30,-0.13
33,1715180786564,4.74,6.07,1.03,-0.80,0.58,-0.45
33,1715180786596,5.34,5.00,2.61,-1.12,0.77,-0.96
33,1715180786628,3.06,4.94,1.95,-1.49,1.42,-1.60
33,1715180786661,1.45,3.98,2.61,-1.74,2.02,-1.97
33,1715180786693,0.13,3.34,3.37,-1.83,2.26,-2.14
33,1715180786725,-2.32,2.66,2.21,-2.59,2.45,-2.80
33,1715180786757,-4.60,1.20,4.26,-4.03,1.83,-3.39
33,1715180786789,-5.19,-0.97,5.22,-4.32,2.15,-3.51
33,1715180786821,-6.14,-3.56,3.24,-4.37,2.68,-3.31
33,1715180786853,-7.32,-4.78,6.16,-4.37,3.04,-3.15
33,1715180786886,-7.71,-7.53,4.92,-4.37,2.96,-3.37
33,1715180786918,-8.87,-9.29,2.23,-4.37,2.24,-2.61
33,1715180786950,-7.12,-12.07,5.47,-4.23,2.39,-2.03
33,1715180786982,-8.77,-12.80,3.90,-2.95,2.97,-1.89
33,1715180787014,-11.24,-13.70,5.25,-2.01,2.61,-1.72
33,1715180787046,-9.86,-14.65,6.70,-1.45,2.65,-1.48
33,1715180787079,-12.93,-11.43,3.40,-0.42,2.91,-1.01
33,1715180787111,-12.51,-10.81,4.53,-0.07,2.48,-0.44
33,1715180787143,-11.34,-9.61,3.34,0.57,3.14,-0.01
33,1715180787175,-12.12,-7.35,2.52,0.94,3.18,0.59
33,1715180787207,-13.04,-6.04,2.29,0.92,2.20,0.93
33,1715180787240,-12.10,-5.72,2.09,0.65,0.53,0.66
33,1715180787272,-9.67,-6.84,2.42,0.67,-0.44,0.08
33,1715180787305,-8.54,-5.76,1.06,1.02,-0.14,0.11
33,1715180787336,-7.72,-5.31,0.17,0.97,0.12,0.47
33,1715180787369,-8.41,-4.68,-0.07,0.74,0.15,0.61
33,1715180787401,-8.97,-4.92,0.27,0.10,-0.35,0.43
34,1715181129830,-3.46,2.57,8.06,0.37,-2.56,-0.16
34,1715181129862,-4.53,-9.13,4.92,-0.74,1.15,-1.29
34,1715181129894,-5.77,-9.31,5.41,-0.92,1.41,-0.82
34,1715181129927,-4.99,-9.15,5.22,-0.70,1.37,-0.41
34,1715181129958,-5.66,-9.26,4.84,-0.61,1.11,-0.07
34,1715181129991,-5.10,-9.39,4.07,-0.49,0.73,0.24
34,1715181130023,-5.23,-9.16,4.14,-0.26,0.20,0.41
34,1715181130056,-2.46,-9.73,4.24,0.02,0.45,0.27
34,1715181130088,-3.15,-9.20,4.10,-0.07,1.79,0.36
34,1715181130121,-4.58,-8.63,4.21,-0.41,1.96,0.50
34,1715181130153,-6.00,-9.02,4.03,-0.39,0.25,0.70
34,1715181130186,-3.57,-9.20,4.71,-0.09,-0.28,0.23
34,1715181130218,-3.19,-8.47,4.18,0.16,0.24,-0.07
34,1715181130250,-3.32,-8.22,3.71,0.08,0.37,0.04
34,1715181130283,-4.77,-8.30,3.28,-0.15,-0.14,0.01
34,1715181130314,-3.87,-8.19,3.57,-0.31,-0.62,-0.20
34,1715181130347,-3.47,-8.01,3.66,-0.43,-0.18,-0.26
34,1715181130380,-6.73,-7.51,5.15,-0.56,-0.36,-0.17
34,1715181130412,-8.18,-8.57,8.57,-0.97,-1.52,-0.25
34,1715181130444,-7.18,-11.17,12.05,-0.37,-1.77,-0.16
34,1715181130477,-9.37,-13.30,12.63,1.20,-1.69,0.33
34,1715181130508,-10.19,-14.14,11.90,2.31,-1.39,0.88
34,1715181130541,-11.70,-15.62,10.79,3.35,-1.58,1.65
34,1715181130573,-12.19,-17.41,10.41,4.12,-2.32,2.15
34,1715181130606,-9.30,-18.70,8.91,4.37,-2.10,2.45
34,1715181130638,-9.15,-17.72,7.64,4.37,-1.79,2.74
34,1715181130671,-8.80,-16.78,7.70,4.37,-2.30,2.87
34,1715181130702,-6.79,-15.78,5.46,4.37,-2.58,2.55
34,1715181130734,-3.86,-11.13,2.63,4.37,-2.02,2.45
34,1715181130766,-3.24,-8.40,2.38,4.37,-1.29,2.64
34,1715181130799,-2.98,-5.55,2.33,4.37,-1.17,2.51
34,1715181130831,-3.16,-4.91,3.21,4.37,-1.47,2.27
34,1715181130864,0.98,-1.90,1.40,4.37,-0.79,2.30
34,1715181130896,-0.46,1.89,1.29,4.05,-0.33,2.08
34,1715181130928,0.39,2.30,2.10,3.23,-0.88,1.76
34,1715181130960,4.21,4.45,0.03,3.42,-0.34,1.61
34,1715181130992,3.84,7.11,-1.09,2.52,-0.33,1.23
34,1715181131025,5.58,7.78,-1.86,1.75,-0.11,0.61
34,1715181131057,5.94,7.45,-1.62,1.34,-0.16,0.24
34,1715181131090,5.83,8.18,-2.58,0.69,0.02,-0.28
34,1715181131123,5.10,7.89,-3.33,-0.15,0.31,-0.80
34,1715181131155,4.36,6.97,-3.08,-0.86,0.32,-1.15
34,1715181131188,4.50,5.45,-3.00,-1.60,0.48,-1.54
34,1715181131220,3.14,4.16,-4.54,-2.41,1.09,-2.07
34,1715181131252,1.03,1.88,-4.96,-3.46,1.43,-2.53
34,1715181131285,-0.21,-1.17,-3.16,-4.37,1.15,-2.72
34,1715181131317,-0.14,-4.83,-0.76,-4.37,1.10,-3.07
34,1715181131349,-1.67,-7.54,1.61,-4.37,1.80,-3.60
34,1715181131381,-6.03,-11.68,4.34,-4.37,0.77,-3.69
34,1715181131413,-2.77,-16.62,6.45,-4.37,0.40,-3.83
34,1715181131446,-5.03,-19.61,8.82,-4.37,1.22,-3.50
34,1715181131479,-6.05,-19.61,10.86,-4.37,0.93,-3.68
34,1715181131511,-5.74,-19.61,9.15,-4.37,1.84,-4.36
34,1715181131543,-10.47,-19.61,11.51,-4.37,1.34,-3.40
34,1715181131575,-7.83,-19.61,12.58,-4.06,0.95,-2.14
34,1715181131607,-8.53,-15.76,9.96,-2.95,2.06,-1.27
34,1715181131640,-11.08,-14.14,9.15,-2.02,1.61,-0.31
34,1715181131673,-8.95,-13.44,9.05,-0.69,0.28,0.33
34,1715181131705,-6.55,-10.88,7.08,0.14,0.15,0.40
34,1715181131738,-6.16,-10.05,5.95,0.29,0.57,0.71
34,1715181131770,-4.88,-10.24,5.98,0.49,0.61,1.03
34,1715181131803,-4.60,-9.52,5.01,1.04,0.37,1.09
34,1715181131836,-3.67,-8.81,4.06,1.20,0.48,1.02
34,1715181131867,-4.01,-8.41,3.33,1.00,0.73,0.92
35,1715181134929,-7.27,-9.09,4.55,0.44,-0.25,0.45
35,1715181134960,-6.76,-8.96,5.32,0.54,-0.32,0.61
35,1715181134993,-7.79,-9.68,5.76,0.72,-0.44,0.75
35,1715181135024,-8.24,-9.68,5.71,1.11,-0.58,0.96
35,1715181135057,-8.65,-9.73,6.75,1.31,-0.93,1.21
35,1715181135088,-9.36,-10.76,6.68,1.71,-1.20,1.35
35,1715181135121,-9.95,-10.83,6.36,2.24,-1.38,1.59
35,1715181135153,-11.20,-11.32,7.29,3.00,-1.92,1.98
35,1715181135186,-10.19,-10.69,6.73,3.38,-1.88,2.20
35,1715181135217,-11.78,-10.38,7.24,3.71,-2.22,2.16
35,1715181135250,-9.10,-9.97,7.60,4.07,-2.49,2.36
35,1715181135282,-8.34,-9.22,6.86,4.37,-1.77,2.41
35,1715181135314,-9.88,-7.76,7.17,4.37,-2.40,2.58
35,1715181135346,-8.32,-7.55,7.15,4.37,-3.46,2.30
35,1715181135379,-5.51,-5.65,6.18,4.37,-3.08,2.20
35,1715181135410,-5.72,-4.30,7.24,4.37,-2.14,2.41
35,1715181135443,-4.06,-3.87,5.24,4.37,-1.74,2.61
35,1715181135474,-2.22,0.58,4.14,4.37,-1.15,2.71
35,1715181135507,-2.94,0.55,3.59,4.37,-1.12,2.65
35,1715181135539,2.22,2.50,1.34,4.37,-0.97,2.48
35,1715181135571,1.25,4.25,0.71,3.74,-0.52,2.16
35,1715181135604,3.46,4.68,-0.95,3.03,-1.03,1.93
35,1715181135635,6.00,5.43,-3.21,2.58,-0.31,1.48
35,1715181135667,5.32,6.57,-2.71,1.63,-0.51,0.95
35,1715181135700,7.37,6.70,-3.29,1.12,-0.41,0.35
35,1715181135732,6.89,7.23,-4.66,0.54,0.13,-0.35
35,1715181135764,5.60,7.21,-5.43,-0.29,0.15,-0.90
35,1715181135797,5.71,6.61,-5.22,-1.18,0.34,-1.37
35,1715181135829,4.64,5.07,-4.85,-1.96,0.70,-1.89
35,1715181135861,2.78,3.43,-4.09,-2.83,1.02,-2.37
35,1715181135894,2.46,1.74,-1.98,-3.52,0.97,-2.67
35,1715181135925,1.63,0.21,-1.02,-4.37,1.31,-3.18
35,1715181135958,-1.11,-2.22,-1.14,-4.37,1.97,-3.97
35,1715181135990,-6.77,-6.69,2.84,-4.37,1.84,-4.37
35,1715181136022,-4.65,-8.56,4.32,-4.37,2.20,-4.19
35,1715181136054,-6.66,-13.10,4.66,-4.37,4.24,-4.22
35,1715181136088,-13.79,-14.65,6.86,-4.37,1.28,-4.23
35,1715181136120,-7.11,-16.69,4.36,-4.37,-0.58,-4.30
35,1715181136152,-5.55,-19.61,4.95,-4.37,-0.29,-4.06
35,1715181136185,-3.54,-19.61,8.29,-4.37,0.92,-3.23
35,1715181136216,-6.07,-19.61,5.66,-4.37,3.03,-2.60
35,1715181136248,-11.75,-18.25,4.89,-2.40,2.98,-1.43
35,1715181136281,-12.09,-15.18,7.45,-1.95,1.86,-0.90
35,1715181136314,-11.17,-13.39,5.78,-1.04,1.29,-0.44
35,1715181136346,-10.17,-11.38,4.93,-0.22,1.15,-0.06
35,1715181136379,-9.41,-10.30,5.04,0.09,0.82,0.46
35,1715181136411,-7.86,-10.23,4.41,0.50,0.56,0.89
35,1715181136443,-6.91,-9.51,3.47,0.91,0.31,1.04
35,1715181136476,-5.66,-9.05,2.56,1.21,0.44,1.11
35,1715181136508,-6.27,-7.97,2.09,1.21,0.41,1.24
35,1715181136541,-5.98,-7.83,1.92,1.04,0.08,1.16
35,1715181136572,-5.62,-7.56,1.74,0.83,-0.20,0.80
35,1715181136605,-5.18,-7.77,1.43,0.67,-0.15,0.54
35,1715181136637,-4.60,-7.76,1.09,0.61,0.20,0.56
35,1715181136669,-5.03,-7.88,1.36,0.52,0.43,0.58
35,1715181136701,-5.65,-7.95,1.32,0.47,0.04,0.46
35,1715181136733,-5.26,-8.00,1.07,0.44,-0.34,0.27
35,1715181136765,-4.77,-8.10,0.72,0.43,-0.21,0.24
35,1715181136797,-3.92,-8.01,0.53,0.48,0.37,0.30
35,1715181136829,-4.14,-7.99,0.61,0.50,1.05,0.34
35,1715181136861,-6.38,-7.59,0.90,0.34,0.63,0.27
35,1715181136893,-5.65,-7.77,0.76,0.24,-0.10,-0.03
35,1715181136926,-5.03,-7.78,0.61,0.14,-0.29,-0.14
35,1715181136958,-4.82,-7.81,0.69,0.05,0.00,-0.09
36,1715181140008,-6.91,-8.16,3.24,0.20,-0.23,0.10
36,1715181140040,-7.54,-8.41,3.22,0.35,-0.52,0.15
36,1715181140073,-8.60,-8.25,3.77,0.29,-1.27,0.20
36,1715181140104,-7.63,-8.51,4.42,0.30,-1.44,0.17
36,1715181140136,-7.60,-8.83,5.17,0.47,-1.14,0.31
36,1715181140168,-8.58,-9.13,5.59,0.76,-0.91,0.57
36,1715181140200,-9.19,-9.47,5.59,1.15,-0.91,0.82
36,1715181140232,-9.93,-9.70,6.07,1.40,-1.10,1.08
36,1715181140264,-10.35,-9.99,6.09,1.66,-1.09,1.31
36,1715181140297,-11.30,-10.07,5.70,2.00,-1.17,1.60
36,1715181140328,-11.99,-10.36,5.33,2.40,-1.58,2.01
36,1715181140360,-12.04,-9.78,4.81,2.92,-2.34,2.27
36,1715181140393,-9.77,-9.64,5.14,3.26,-2.34,2.31
36,1715181140425,-10.50,-9.26,5.24,3.80,-2.51,2.36
36,1715181140457,-10.84,-8.22,5.65,4.37,-3.40,2.41
36,1715181140489,-7.66,-7.73,5.99,4.37,-3.64,2.24
36,1715181140521,-5.60,-7.02,5.58,4.37,-3.36,2.11
36,1715181140553,-4.18,-3.70,5.19,4.37,-2.69,2.54
36,1715181140586,-5.14,-3.31,6.44,4.37,-3.06,2.50
36,1715181140618,-1.42,-3.86,4.52,4.37,-1.76,2.34
36,1715181140650,-1.25,2.58,3.28,4.37,-0.93,2.22
36,1715181140683,-1.31,0.73,2.63,4.37,-1.48,2.33
36,1715181140715,2.17,3.54,0.34,4.36,-1.14,2.36
36,1715181140747,3.50,6.24,-0.90,3.54,-0.72,1.95
36,1715181140779,6.48,5.54,-3.75,2.59,-0.57,1.38
36,1715181140811,5.85,6.62,-2.83,1.80,-0.49,1.01
36,1715181140843,6.19,7.94,-2.40,1.24,-0.42,0.58
36,1715181140875,6.57,8.15,-2.11,0.78,-0.23,0.12
36,1715181140907,5.65,8.27,-1.93,0.35,-0.28,-0.30
36,1715181140939,5.99,8.26,-2.99,-0.03,-0.02,-0.69
36,1715181140971,4.81,8.21,-3.40,-0.49,0.37,-1.04
36,1715181141003,4.37,7.56,-2.82,-1.15,0.26,-1.26
36,1715181141036,4.88,6.32,-2.86,-1.66,0.57,-1.64
36,1715181141068,2.41,5.62,-3.31,-2.34,1.26,-2.08
36,1715181141101,1.25,4.04,-1.10,-3.32,0.96,-2.29
36,1715181141133,1.18,2.42,0.64,-3.83,1.05,-2.55
36,1715181141165,-0.30,1.68,0.67,-4.37,1.71,-2.89
36,1715181141197,-3.28,-0.11,-0.29,-4.37,1.88,-3.30
36,1715181141229,-5.10,-4.75,0.91,-4.37,0.85,-3.74
36,1715181141261,-4.55,-7.28,2.91,-4.37,0.64,-3.77
36,1715181141294,-5.19,-9.78,1.54,-4.37,0.78,-3.50
36,1715181141326,-4.08,-15.41,4.03,-4.37,1.04,-2.95
36,1715181141358,-3.73,-18.96,6.10,-4.37,1.75,-2.74
36,1715181141391,-5.26,-19.61,4.42,-4.37,2.60,-2.86
36,1715181141423,-8.91,-19.61,7.60,-4.37,1.77,-2.67
36,1715181141455,-5.30,-19.61,7.35,-3.89,2.48,-2.31
36,1715181141488,-10.53,-17.29,5.12,-2.40,3.26,-1.48
36,1715181141521,-13.71,-15.00,6.54,-1.82,2.39,-0.16
36,1715181141554,-11.45,-13.12,7.68,-1.41,1.33,0.62
36,1715181141586,-9.56,-12.49,7.06,-0.63,0.82,0.61
36,1715181141618,-8.18,-11.15,5.63,0.25,0.39,0.44
36,1715181141650,-8.19,-9.88,4.05,0.82,-0.09,0.70
36,1715181141682,-6.88,-9.58,3.73,1.05,-0.58,1.05
36,1715181141714,-4.61,-8.94,3.02,1.22,-0.13,1.01
36,1715181141747,-5.18,-7.80,2.47,1.17,0.40,1.03
36,1715181141779,-6.22,-7.20,2.32,0.90,0.23,0.94
36,1715181141811,-5.73,-7.51,1.96,0.74,-0.29,0.68
36,1715181141844,-4.89,-7.66,1.46,0.68,-0.33,0.44
36,1715181141876,-4.92,-7.57,1.44,0.56,-0.27,0.35
36,1715181141908,-4.52,-7.67,1.56,0.46,-0.08,0.25
36,1715181141940,-4.77,-7.68,1.51,0.36,0.17,0.13
36,1715181141972,-5.35,-7.69,1.50,0.27,0.17,0.11
36,1715181142004,-5.89,-7.78,1.48,0.18,-0.20,0.07
36,1715181142037,-4.99,-7.88,1.36,0.14,-0.23,0.01
37,1715181145090,-6.49,-7.44,1.85,0.11,-0.14,-0.06
37,1715181145122,-6.29,-7.34,1.66,0.10,-0.14,-0.01
37,1715181145154,-6.35,-7.25,1.92,-0.03,-0.32,-0.07
37,1715181145187,-6.23,-7.39,2.32,-0.14,-0.47,-0.10
37,1715181145218,-5.97,-7.55,2.52,-0.18,-0.44,-0.12
37,1715181145250,-6.29,-7.29,2.74,-0.27,-0.43,-0.13
37,1715181145283,-6.92,-7.56,3.16,-0.45,-0.48,-0.15
37,1715181145314,-7.48,-7.66,3.49,-0.63,-0.54,-0.13
37,1715181145346,-7.63,-8.00,3.57,-0.76,-0.54,-0.01
37,1715181145379,-8.66,-8.17,4.59,-0.79,-0.56,0.20
37,1715181145411,-9.33,-9.27,5.11,-0.55,-0.70,0.44
37,1715181145443,-10.11,-9.48,5.76,0.02,-1.04,0.78
37,1715181145475,-9.99,-10.01,6.21,0.49,-1.68,0.88
37,1715181145507,-11.32,-10.85,7.90,1.42,-2.08,0.98
37,1715181145539,-10.85,-11.20,7.01,2.49,-2.38,1.30
37,1715181145571,-11.24,-11.45,7.27,2.75,-1.86,1.47
37,1715181145603,-14.15,-11.43,6.74,3.53,-2.65,1.75
37,1715181145635,-11.44,-11.04,6.56,3.80,-3.09,1.92
37,1715181145668,-11.30,-11.33,5.93,4.34,-3.47,1.88
37,1715181145699,-9.75,-10.95,5.33,4.37,-3.20,1.77
37,1715181145732,-10.90,-9.62,4.98,4.37,-3.51,2.28
37,1715181145764,-9.68,-9.14,4.66,4.37,-4.28,2.16
37,1715181145796,-6.17,-8.59,4.13,4.37,-4.37,2.05
37,1715181145829,-1.13,-2.57,2.33,4.37,-1.19,2.31
37,1715181145861,-6.03,-1.79,2.54,4.37,-1.41,2.28
37,1715181145893,0.69,-0.62,0.12,4.37,-1.87,1.99
37,1715181145925,3.55,4.21,-2.06,4.37,-0.88,1.89
37,1715181145957,2.93,4.61,-2.30,3.02,-0.36,1.56
37,1715181145989,5.78,5.51,-1.76,2.20,-0.52,1.46
37,1715181146021,6.59,7.32,-2.37,1.38,-0.16,0.97
37,1715181146054,6.76,6.78,-2.51,0.72,0.32,0.36
37,1715181146085,6.67,6.97,-2.21,0.07,0.44,-0.17
37,1715181146117,5.80,6.57,-2.19,-0.77,0.54,-0.77
